File: xrd-UiO-67/standard/BPDC.xye
3   0   4.4
3.02   0   4.4
3.04   0   4.4
3.06   0   4.4
3.08   0   4.4
3.1   0   4.4
3.12   0   4.4
3.14   0   4.4
3.16   0   4.4
3.18   0   4.4
3.2   0   4.4
3.22   0   4.4
3.24   0   4.4
3.26   0   4.4
3.28   0   4.4
3.3   0   4.4
3.32   0   4.4
3.34   0   4.4
3.36   0   4.4
3.38   0   4.4
3.4   0   4.4
3.42   0   4.4
3.44   0   4.4
3.46   0   4.4
3.48   0   4.4
3.5   0   4.4
3.52   0   4.4
3.54   0   4.4
3.56   0   4.4
3.58   0   4.4
3.6   0   4.4
3.62   0   4.4
3.64   0   4.4
3.66   0   4.4
3.68   0   4.4
3.7   0   4.4
3.72   0   4.4
3.74   0   4.4
3.76   0   4.4
3.78   0   4.4
3.8   0   4.4
3.82   0   4.4
3.84   0   4.4
3.86   0   4.4
3.88   0   4.4
3.9   0   4.4
3.92   0   4.4
3.94   0   4.4
3.96   0   4.4
3.98   0   4.4
4   0   4.4
4.02   0   4.4
4.04   0   4.4
4.06   0   4.4
4.08   0   4.4
4.1   0   4.4
4.12   0   4.4
4.14   0   4.4
4.16   0   4.4
4.18   0   4.4
4.2   0   4.4
4.22   0   4.4
4.24   0   4.4
4.26   0   4.4
4.28   0   4.4
4.3   0   4.4
4.32   0   4.4
4.34   0   4.4
4.36   0   4.4
4.38   0   4.4
4.4   0   4.4
4.42   0   4.4
4.44   0   4.4
4.46   0   4.4
4.48   0   4.4
4.5   0   4.4
4.52   0   4.4
4.54   0   4.4
4.56   0   4.4
4.58   0   4.4
4.6   0   4.4
4.62   0   4.4
4.64   0   4.4
4.66   0   4.4
4.68   0   4.4
4.7   0   4.4
4.72   0   4.4
4.74   0   4.4
4.76   0   4.4
4.78   0   4.4
4.8   0   4.4
4.82   0   4.4
4.84   0   4.4
4.86   0   4.4
4.88   0   4.4
4.9   0   4.4
4.92   0   4.4
4.94   0   4.4
4.96   0   4.4
4.98   0   4.4
5   0   4.4
5.02   0   4.4
5.04   0   4.4
5.06   0   4.4
5.08   0   4.4
5.1   0   4.4
5.12   0   4.4
5.14   0   4.4
5.16   0   4.4
5.18   0   4.4
5.2   0   4.4
5.22   0   4.4
5.24   0   4.4
5.26   0   4.4
5.28   0   4.4
5.3   0   4.4
5.32   0   4.4
5.34   0   4.4
5.36   0   4.4
5.38   0   4.4
5.4   0   4.4
5.42   0   4.4
5.44   0   4.4
5.46   0   4.4
5.48   0   4.4
5.5   0   4.4
5.52   0   4.4
5.54   0   4.4
5.56   0   4.4
5.58   0   4.4
5.6   0   4.4
5.62   0   4.4
5.64   0   4.4
5.66   0   4.4
5.68   0   4.4
5.7   0   4.4
5.72   0   4.4
5.74   0   4.4
5.76   0   4.4
5.78   0   4.4
5.8   0   4.4
5.82   0   4.4
5.84   0   4.4
5.86   0   4.4
5.88   0   4.4
5.9   0   4.4
5.92   0   4.4
5.94   0   4.4
5.96   0   4.4
5.98   0   4.4
6   0   4.4
6.02   0   4.4
6.04   0   4.4
6.06   0   4.4
6.08   0   4.4
6.1   0   4.4
6.12   0   4.4
6.14   0   4.4
6.16   0   4.4
6.18   0   4.4
6.2   0   4.4
6.22   0   4.4
6.24   0   4.4
6.26   0   4.4
6.28   0   4.4
6.3   0   4.4
6.32   0   4.4
6.34   0   4.4
6.36   0   4.4
6.38   0   4.4
6.4   0   4.4
6.42   0   4.4
6.44   0   4.4
6.46   0   4.4
6.48   0   4.4
6.5   0   4.4
6.52   0   4.4
6.54   0   4.4
6.56   0   4.4
6.58   0   4.4
6.6   0   4.4
6.62   0   4.4
6.64   0   4.4
6.66   0   4.4
6.68   0   4.4
6.7   0   4.4
6.72   0   4.4
6.74   0   4.4
6.76   0   4.4
6.78   0   4.4
6.8   0   4.4
6.82   0   4.4
6.84   0   4.4
6.86   0   4.4
6.88   0   4.4
6.9   0   4.4
6.92   0   4.4
6.94   0   4.4
6.96   0   4.4
6.98   0   4.4
7   0   4.4
7.02   0   4.4
7.04   0   4.4
7.06   0   4.4
7.08   0   4.4
7.1   0   4.4
7.12   0   4.4
7.14   0   4.4
7.16   0   4.4
7.18   0   4.4
7.2   0   4.4
7.22   0   4.4
7.24   0   4.4
7.26   0   4.4
7.28   0   4.4
7.3   0   4.4
7.32   0   4.4
7.34   0   4.4
7.36   0   4.4
7.38   0   4.4
7.4   0   4.4
7.42   0   4.4
7.44   0   4.4
7.46   0   4.4
7.48   0   4.4
7.5   0   4.4
7.52   0   4.4
7.54   0   4.4
7.56   0   4.4
7.58   0   4.4
7.6   0   4.4
7.62   0   4.4
7.64   0   4.4
7.66   0   4.4
7.68   0   4.4
7.7   0   4.4
7.72   0   4.4
7.74   0   4.4
7.76   0   4.4
7.78   0   4.4
7.8   0   4.4
7.82   0   4.4
7.84   0   4.4
7.86   0   4.4
7.88   0   4.4
7.9   0   4.4
7.92   0   4.4
7.94   0   4.4
7.96   0   4.4
7.98   0   4.4
8   0   4.4
8.02   0   4.4
8.04   0   4.4
8.06   0   4.4
8.08   0   4.4
8.1   0.156344   4.4
8.12   0.160723   4.4
8.14   0.165288   4.4
8.16   0.170051   4.4
8.18   0.175022   4.4
8.2   0.180214   4.4
8.22   0.185641   4.4
8.24   0.191316   4.4
8.26   0.197256   4.4
8.28   0.203477   4.4
8.3   0.209996   4.4
8.32   0.216833   4.4
8.34   0.22401   4.4
8.36   0.231549   4.4
8.38   0.239475   4.4
8.4   0.247814   4.4
8.42   0.256597   4.4
8.44   0.265854   4.4
8.46   0.275621   4.4
8.48   0.285936   4.4
8.5   0.296841   4.4
8.52   0.308381   4.4
8.54   0.320607   4.4
8.56   0.333574   4.4
8.58   0.347344   4.4
8.6   0.361983   4.4
8.62   0.377566   4.4
8.64   0.394176   4.4
8.66   0.411907   4.4
8.68   0.430859   4.4
8.7   0.451149   4.4
8.72   0.472905   4.4
8.74   0.496271   4.4
8.76   0.521411   4.4
8.78   0.548507   4.4
8.8   0.577768   4.4
8.82   0.609432   4.4
8.84   0.643766   4.4
8.86   0.681081   4.4
8.88   0.721731   4.4
8.9   0.766124   4.4
8.92   0.814734   4.4
8.94   0.86811   4.4
8.96   0.926896   4.4
8.98   0.991845   4.4
9   1.06385   4.4
9.02   1.14396   4.4
9.04   1.23345   4.4
9.06   1.33382   4.4
9.08   1.44692   4.4
9.1   1.57497   4.4
9.12   1.72072   4.4
9.14   1.88758   4.4
9.16   2.07979   4.4
9.18   2.30275   4.4
9.2   2.56331   4.4
9.22   2.87037   4.4
9.24   3.23559   4.4
9.26   3.67447   4.4
9.28   4.208   4.4
9.3   4.86507   4.4
9.32   5.68633   4.4
9.34   6.73027   4.4
9.36   8.08362   4.4
9.38   9.88067   4.4
9.4   12.3453   4.4
9.42   15.891   4.4
9.44   21.3392   4.61944
9.46   30.2782   5.50256
9.48   45.367   6.7355
9.5   70.0222   8.36793
9.52   106.177   10.3042
9.54   145.879   12.078
9.56   160.021   12.6499
9.58   132.616   11.5159
9.6   91.9835   9.5908
9.62   59.8594   7.73689
9.64   39.028   6.24724
9.66   26.5216   5.14992
9.68   19.084   4.4
9.7   14.4534   4.4
9.72   11.3629   4.4
9.74   9.17258   4.4
9.76   7.5547   4.4
9.78   6.32491   4.4
9.8   5.36919   4.4
9.82   4.61255   4.4
9.84   4.00382   4.4
9.86   3.50715   4.4
9.88   3.09681   4.4
9.9   2.75404   4.4
9.92   2.46486   4.4
9.94   2.21872   4.4
9.96   2.00751   4.4
9.98   1.82496   4.4
10   1.66613   4.4
10.02   1.52709   4.4
10.04   1.40469   4.4
10.06   1.2964   4.4
10.08   1.20013   4.4
10.1   1.11417   4.4
10.12   1.03711   4.4
10.14   0.96775   4.4
10.16   0.90511   4.4
10.18   0.848348   4.4
10.2   0.796753   4.4
10.22   0.749717   4.4
10.24   0.70672   4.4
10.26   0.667312   4.4
10.28   0.631106   4.4
10.3   0.597764   4.4
10.32   0.566993   4.4
10.34   0.538535   4.4
10.36   0.512164   4.4
10.38   0.487682   4.4
10.4   0.464912   4.4
10.42   0.443698   4.4
10.44   0.423903   4.4
10.46   0.405402   4.4
10.48   0.388085   4.4
10.5   0.379539   4.4
10.52   0.364522   4.4
10.54   0.350431   4.4
10.56   0.337195   4.4
10.58   0.324748   4.4
10.6   0.313034   4.4
10.62   0.301998   4.4
10.64   0.291593   4.4
10.66   0.281776   4.4
10.68   0.272507   4.4
10.7   0.26375   4.4
10.72   0.255472   4.4
10.74   0.247644   4.4
10.76   0.240238   4.4
10.78   0.233229   4.4
10.8   0.226595   4.4
10.82   0.220316   4.4
10.84   0.214371   4.4
10.86   0.208745   4.4
10.88   0.203421   4.4
10.9   0.198386   4.4
10.92   0.193627   4.4
10.94   0.189133   4.4
10.96   0.184893   4.4
10.98   0.180899   4.4
11   0.177143   4.4
11.02   0.0188043   4.4
11.04   0.0196473   4.4
11.06   0.0205482   4.4
11.08   0.0215125   4.4
11.1   0.0225462   4.4
11.12   0.0236561   4.4
11.14   0.0248499   4.4
11.16   0.0261363   4.4
11.18   0.027525   4.4
11.2   0.0290273   4.4
11.22   0.0306559   4.4
11.24   0.0324251   4.4
11.26   0.0343518   4.4
11.28   0.0364551   4.4
11.3   0.0387573   4.4
11.32   0.0412841   4.4
11.34   0.0440657   4.4
11.36   0.0471374   4.4
11.38   0.050541   4.4
11.4   0.0543258   4.4
11.42   0.0585509   4.4
11.44   0.063287   4.4
11.46   0.0686195   4.4
11.48   0.0746527   4.4
11.5   0.0815143   4.4
11.52   0.0893623   4.4
11.54   0.0983944   4.4
11.56   0.108859   4.4
11.58   0.121076   4.4
11.6   0.135453   4.4
11.62   0.152529   4.4
11.64   0.173015   4.4
11.66   0.197875   4.4
11.68   0.228427   4.4
11.7   0.266525   4.4
11.72   0.314824   4.4
11.74   0.377239   4.4
11.76   0.555182   4.4
11.78   0.670403   4.4
11.8   0.833758   4.4
11.82   1.08079   4.4
11.84   1.48104   4.4
11.86   2.1543   4.4
11.88   3.26252   4.4
11.9   4.92399   4.4
11.92   6.87308   4.4
11.94   7.84411   4.4
11.96   6.77517   4.4
11.98   4.82685   4.4
12   3.20519   4.4
12.02   2.13505   4.4
12.04   1.49011   4.4
12.06   1.10971   4.4
12.08   0.877271   4.4
12.1   0.725807   4.4
12.12   0.621239   4.4
12.14   0.546272   4.4
12.16   0.491346   4.4
12.18   0.450632   4.4
12.2   0.420335   4.4
12.22   0.397889   4.4
12.24   0.381517   4.4
12.26   0.369961   4.4
12.28   0.362321   4.4
12.3   0.357943   4.4
12.32   0.356352   4.4
12.34   0.357204   4.4
12.36   0.36025   4.4
12.38   0.36532   4.4
12.4   0.372299   4.4
12.42   0.381126   4.4
12.44   0.391777   4.4
12.46   0.404269   4.4
12.48   0.41865   4.4
12.5   0.435002   4.4
12.52   0.453442   4.4
12.54   0.474118   4.4
12.56   0.497218   4.4
12.58   0.522971   4.4
12.6   0.551653   4.4
12.62   0.583593   4.4
12.64   0.619186   4.4
12.66   0.658902   4.4
12.68   0.703303   4.4
12.7   0.753061   4.4
12.72   0.808984   4.4
12.74   0.872051   4.4
12.76   0.943449   4.4
12.78   1.02463   4.4
12.8   1.11739   4.4
12.82   1.22397   4.4
12.84   1.34714   4.4
12.86   1.49048   4.4
12.88   1.65852   4.4
12.9   1.85717   4.4
12.92   2.0942   4.4
12.94   2.37999   4.4
12.96   2.72866   4.4
12.98   3.15972   4.4
13   3.7008   4.4
13.02   4.39189   4.4
13.04   5.29282   4.4
13.06   6.49764   4.4
13.08   8.16686   4.4
13.1   10.604   4.4
13.12   14.4149   4.4
13.14   20.7417   4.55431
13.16   31.4005   5.60361
13.18   48.5023   6.96436
13.2   72.4653   8.51266
13.22   95.3804   9.76629
13.24   97.5006   9.87424
13.26   76.3711   8.73906
13.28   51.7164   7.19141
13.3   33.5126   5.78901
13.32   22.0131   4.69181
13.34   15.1656   4.4
13.36   11.0649   4.4
13.38   8.46951   4.4
13.4   6.70118   4.4
13.42   5.43862   4.4
13.44   4.49863   4.4
13.46   3.77991   4.4
13.48   3.21866   4.4
13.5   2.77248   4.4
13.52   2.41222   4.4
13.54   2.11734   4.4
13.56   1.87302   4.4
13.58   1.66842   4.4
13.6   1.49541   4.4
13.62   1.34785   4.4
13.64   1.221   4.4
13.66   1.11118   4.4
13.68   1.01547   4.4
13.7   0.931578   4.4
13.72   0.857633   4.4
13.74   0.792129   4.4
13.76   0.733832   4.4
13.78   0.681725   4.4
13.8   0.634963   4.4
13.82   0.592842   4.4
13.84   0.554769   4.4
13.86   0.520241   4.4
13.88   0.488834   4.4
13.9   0.460182   4.4
13.92   0.433973   4.4
13.94   0.409937   4.4
13.96   0.387842   4.4
13.98   0.367483   4.4
14   0.348684   4.4
14.02   0.33129   4.4
14.04   0.315164   4.4
14.06   0.300186   4.4
14.08   0.286249   4.4
14.1   0.273261   4.4
14.12   0.261135   4.4
14.14   0.249799   4.4
14.16   0.239184   4.4
14.18   0.229231   4.4
14.2   0.219886   4.4
14.22   0.211101   4.4
14.24   0.202831   4.4
14.26   0.195038   4.4
14.28   0.187685   4.4
14.3   0.18074   4.4
14.32   0.174173   4.4
14.34   0.167957   4.4
14.36   0.162068   4.4
14.38   0.156483   4.4
14.4   0.151182   4.4
14.42   0.146146   4.4
14.44   0.141357   4.4
14.46   0.136799   4.4
14.48   0.132458   4.4
14.5   0.128321   4.4
14.52   0.124374   4.4
14.54   0.120607   4.4
14.56   0.117008   4.4
14.58   0.113567   4.4
14.6   0.110277   4.4
14.62   0.107127   4.4
14.64   0.10411   4.4
14.66   0.101218   4.4
14.68   0.098446   4.4
14.7   0.0957858   4.4
14.72   0   4.4
14.74   0   4.4
14.76   0   4.4
14.78   0   4.4
14.8   0   4.4
14.82   0   4.4
14.84   0   4.4
14.86   0   4.4
14.88   0   4.4
14.9   0   4.4
14.92   0   4.4
14.94   0   4.4
14.96   0   4.4
14.98   0   4.4
15   0   4.4
15.02   0   4.4
15.04   0   4.4
15.06   0   4.4
15.08   0   4.4
15.1   0   4.4
15.12   0   4.4
15.14   0   4.4
15.16   0   4.4
15.18   0   4.4
15.2   0   4.4
15.22   0   4.4
15.24   0   4.4
15.26   0   4.4
15.28   0   4.4
15.3   0   4.4
15.32   0   4.4
15.34   0   4.4
15.36   0   4.4
15.38   0   4.4
15.4   0   4.4
15.42   0   4.4
15.44   0   4.4
15.46   0   4.4
15.48   0   4.4
15.5   0   4.4
15.52   0   4.4
15.54   0   4.4
15.56   0   4.4
15.58   0   4.4
15.6   0   4.4
15.62   0   4.4
15.64   0   4.4
15.66   0   4.4
15.68   9.75119   4.4
15.7   10.0214   4.4
15.72   10.3029   4.4
15.74   10.5965   4.4
15.76   10.9028   4.4
15.78   11.2225   4.4
15.8   11.5566   4.4
15.82   11.9057   4.4
15.84   12.271   4.4
15.86   12.6532   4.4
15.88   13.0537   4.4
15.9   13.4734   4.4
15.92   13.9137   4.4
15.94   14.3759   4.4
15.96   14.8615   4.4
15.98   15.3721   4.4
16   15.9095   4.4
16.02   16.4756   4.4
16.04   17.0724   4.4
16.06   17.7021   4.4
16.08   18.3674   4.4
16.1   19.0709   4.4
16.12   19.8155   4.45146
16.14   20.6045   4.53922
16.16   21.4416   4.63051
16.18   22.3308   4.72554
16.2   23.2763   4.82455
16.22   24.2832   4.92779
16.24   25.3567   5.03554
16.26   26.503   5.1481
16.28   27.7286   5.2658
16.3   29.0413   5.389
16.32   30.4492   5.51808
16.34   31.962   5.65349
16.36   33.5902   5.79571
16.38   35.3459   5.94524
16.4   37.2427   6.10268
16.42   39.2961   6.26866
16.44   41.5239   6.4439
16.46   43.9463   6.6292
16.48   46.5865   6.82543
16.5   49.4716   7.03361
16.52   52.6327   7.25484
16.54   56.1059   7.49039
16.56   59.9338   7.74169
16.58   64.1662   8.01038
16.6   68.8619   8.29831
16.62   74.0909   8.60761
16.64   79.9369   8.94075
16.66   86.5006   9.30057
16.68   93.9039   9.6904
16.7   102.296   10.1141
16.72   111.859   10.5764
16.74   122.823   11.0825
16.76   135.471   11.6392
16.78   150.165   12.2542
16.8   167.368   12.9371
16.82   187.682   13.6997
16.84   211.895   14.5566
16.86   241.064   15.5262
16.88   276.621   16.6319
16.9   320.548   17.9038
16.92   375.646   19.3816
16.94   445.971   21.118
16.96   537.584   23.1859
16.98   659.995   25.6904
17   829.401   28.7993
17.02   1076.37   32.808
17.04   1461.88   38.2345
17.06   2101.24   45.8393
17.08   3178.72   56.3801
17.1   4910.81   70.0772
17.12   7349.42   85.7287
17.14   9716.61   98.5729
17.16   10000   100
17.18   7871.84   88.7234
17.2   5340.97   73.0819
17.22   3461.59   58.8353
17.24   2271.72   47.6625
17.26   1562.77   39.5319
17.28   1138.56   33.7426
17.3   870.506   29.5043
17.32   688.923   26.2473
17.34   558.848   23.64
17.36   462.075   21.4959
17.38   388.122   19.7008
17.4   330.399   18.1769
17.42   284.527   16.8679
17.44   247.502   15.7322
17.46   217.204   14.7378
17.48   192.108   13.8603
17.5   171.097   13.0804
17.52   153.334   12.3828
17.54   138.187   11.7553
17.56   125.168   11.1878
17.58   113.898   10.6723
17.6   104.078   10.2019
17.62   95.4716   9.77096
17.64   87.8866   9.37478
17.66   81.1681   9.00933
17.68   75.1894   8.67118
17.7   69.8461   8.3574
17.72   65.0514   8.06544
17.74   60.733   7.79314
17.76   56.8298   7.53855
17.78   53.2903   7.30002
17.8   50.0709   7.07608
17.82   47.1341   6.86543
17.84   44.4479   6.66693
17.86   41.9846   6.47955
17.88   39.7203   6.3024
17.9   37.634   6.13466
17.92   35.7077   5.97559
17.94   33.9254   5.82455
17.96   32.2731   5.68094
17.98   30.7385   5.54424
18   29.3108   5.41394
18.02   27.9801   5.28962
18.04   26.7379   5.17087
18.06   25.5766   5.05733
18.08   24.4892   4.94866
18.1   23.4697   4.84456
18.12   22.5126   4.74474
18.14   21.6127   4.64895
18.16   20.7657   4.55694
18.18   19.9675   4.4685
18.2   19.2144   4.4
18.22   18.5031   4.4
18.24   17.8306   4.4
18.26   17.1941   4.4
18.28   16.591   4.4
18.3   16.0191   4.4
18.32   15.4762   4.4
18.34   14.9605   4.4
18.36   14.5434   4.4
18.38   14.0788   4.4
18.4   13.6365   4.4
18.42   13.2151   4.4
18.44   12.8134   4.4
18.46   12.4301   4.4
18.48   12.0642   4.4
18.5   11.7146   4.4
18.52   11.3805   4.4
18.54   11.061   4.4
18.56   10.7552   4.4
18.58   10.4625   4.4
18.6   10.1821   4.4
18.62   9.91334   4.4
18.64   0.113678   4.4
18.66   0.117696   4.4
18.68   0.121934   4.4
18.7   0.126411   4.4
18.72   0.131144   4.4
18.74   0.136155   4.4
18.76   0.141468   4.4
18.78   0.147108   4.4
18.8   0.153106   4.4
18.82   0.159496   4.4
18.84   0.166316   4.4
18.86   0.173612   4.4
18.88   0.181437   4.4
18.9   0.189853   4.4
18.92   0.198937   4.4
18.94   0.208784   4.4
18.96   0.219513   4.4
18.98   0.231283   4.4
19   0.244311   4.4
19.02   0.258919   4.4
19.04   0.275638   4.4
19.06   0.295443   4.4
19.08   0.320166   4.4
19.1   0.352915   4.4
19.12   0.397911   4.4
19.14   0.458434   4.4
19.16   0.528569   4.4
19.18   0.577409   4.4
19.2   0.576871   4.4
19.22   0.555178   4.4
19.24   0.544068   4.4
19.26   0.550239   4.4
19.28   0.571108   4.4
19.3   0.603185   4.4
19.32   0.644187   4.4
19.34   0.693243   4.4
19.36   0.75052   4.4
19.38   0.816859   4.4
19.4   0.893612   4.4
19.42   0.982628   4.4
19.44   1.08633   4.4
19.46   1.20789   4.4
19.48   1.35144   4.4
19.5   1.52241   4.4
19.52   1.72808   4.4
19.54   1.97829   4.4
19.56   2.28661   4.4
19.58   2.67214   4.4
19.6   3.1624   4.4
19.62   3.79817   4.4
19.64   4.64267   4.4
19.66   5.80137   4.4
19.68   7.4692   4.4
19.7   10.0336   4.4
19.72   14.2429   4.4
19.74   21.3484   4.62043
19.76   32.9522   5.7404
19.78   49.9443   7.06713
19.8   68.5268   8.27809
19.82   74.9898   8.65966
19.84   62.0171   7.87509
19.86   42.9752   6.55555
19.88   27.961   5.28781
19.9   18.2346   4.4
19.92   12.3973   4.4
19.94   8.92512   4.4
19.96   6.76218   4.4
19.98   5.31776   4.4
20   4.29363   4.4