File: xrd-UiO-67/standard/hcp.xye
3   12.1452   4.4
3.02   12.6326   4.4
3.04   13.1499   4.4
3.06   13.6997   4.4
3.08   14.2846   4.4
3.1   14.9077   4.4
3.12   15.5725   4.4
3.14   16.2827   4.4
3.16   17.0426   4.4
3.18   17.8569   4.4
3.2   18.7308   4.4
3.22   19.6705   4.43514
3.24   20.6826   4.54781
3.26   21.7747   4.66634
3.28   22.9555   4.79119
3.3   24.2349   4.9229
3.32   25.6242   5.06203
3.34   27.1361   5.20924
3.36   28.7857   5.36523
3.38   30.5901   5.53083
3.4   32.5692   5.70695
3.42   34.7464   5.8946
3.44   37.1487   6.09498
3.46   39.8085   6.3094
3.48   42.7636   6.53939
3.5   46.0593   6.7867
3.52   49.7498   7.05336
3.54   53.9007   7.34171
3.56   58.5914   7.6545
3.58   63.9194   7.99496
3.6   70.0048   8.36689
3.62   76.9978   8.77484
3.64   85.0868   9.22425
3.66   94.512   9.72173
3.68   105.582   10.2753
3.7   118.701   10.895
3.72   134.4   11.5931
3.74   153.397   12.3854
3.76   176.671   13.2918
3.78   205.588   14.3383
3.8   242.096   15.5594
3.82   289.047   17.0014
3.84   350.771   18.7289
3.86   436.903   20.9022
3.88   554.607   23.5501
3.9   730.595   27.0295
3.92   1012.71   31.8231
3.94   1486.73   38.5582
3.96   2277.14   47.7194
3.98   3500.02   59.161
4   5060.43   71.1367
4.02   6147.68   78.4072
4.04   5649.4   75.1625
4.06   4131.4   64.2759
4.08   2729.84   52.2479
4.1   1769.62   42.0668
4.12   1180.92   34.3645
4.14   832.203   28.8479
4.16   620.039   24.9006
4.18   482.293   21.9612
4.2   386.753   19.666
4.22   317.218   17.8106
4.24   274.669   16.5731
4.26   234.69   15.3196
4.28   203.374   14.2609
4.3   178.448   13.3585
4.32   158.337   12.5832
4.34   141.918   11.913
4.36   128.382   11.3306
4.38   117.127   10.8225
4.4   107.705   10.3781
4.42   99.7734   9.98867
4.44   93.0693   9.64724
4.46   87.3872   9.34811
4.48   82.5658   9.08657
4.5   78.4772   8.85874
4.52   75.0193   8.66137
4.54   72.1102   8.49178
4.56   69.6843   8.34771
4.58   67.6887   8.22731
4.6   66.0809   8.12902
4.62   64.8276   8.05156
4.64   63.9024   7.9939
4.66   63.2855   7.95522
4.68   62.9627   7.9349
4.7   62.9247   7.93251
4.72   63.1671   7.94777
4.74   63.6901   7.98061
4.76   64.4985   8.0311
4.78   65.6019   8.0995
4.8   67.015   8.18627
4.82   68.7583   8.29206
4.84   70.8591   8.41778
4.86   73.3522   8.56459
4.88   76.2818   8.73395
4.9   79.7038   8.9277
4.92   83.6883   9.14813
4.94   88.3238   9.39808
4.96   93.7226   9.68104
4.98   100.028   10.0014
5   107.426   10.3646
5.02   116.158   10.7777
5.04   126.546   11.2493
5.06   139.024   11.7909
5.08   154.19   12.4173
5.1   172.881   13.1484
5.12   196.308   14.011
5.14   226.276   15.0425
5.16   265.625   16.298
5.18   319.236   17.8672
5.2   396.395   19.9097
5.22   515.547   22.7057
5.24   711.759   26.6788
5.26   1035.79   32.1837
5.28   1545.75   39.316
5.3   2237.24   47.2995
5.32   2841.53   53.306
5.34   2812.32   53.0313
5.36   2202.54   46.9313
5.38   1560.07   39.4977
5.4   1110.86   33.3295
5.42   846.568   29.0958
5.44   710.749   26.6599
5.46   655.423   25.6012
5.48   652.332   25.5408
5.5   684.063   26.1546
5.52   762.337   27.6105
5.54   890.567   29.8424
5.56   1091.81   33.0426
5.58   1415.43   37.6222
5.6   1958.99   44.2604
5.62   2887   53.7308
5.64   4411.46   66.4188
5.66   6652.83   81.5649
5.68   9118.64   95.4915
5.7   10000   100
5.72   8295.55   91.0799
5.74   5763.93   75.9205
5.76   3760.68   61.3243
5.78   2460.65   49.6049
5.8   1679.41   40.9806
5.82   1214.23   34.8457
5.84   924.169   30.4001
5.86   730.265   27.0234
5.88   592.613   24.3436
5.9   490.765   22.1532
5.92   413.222   20.3279
5.94   352.868   18.7848
5.96   305.021   17.4648
5.98   266.484   16.3243
6   235.017   15.3303
6.02   209.012   14.4573
6.04   187.297   13.6856
6.06   168.997   12.9999
6.08   153.454   12.3877
6.1   140.164   11.8391
6.12   128.735   11.3461
6.14   118.862   10.9024
6.16   110.306   10.5027
6.18   102.876   10.1428
6.2   96.4214   9.81944
6.22   90.8225   9.53008
6.24   85.9862   9.27288
6.26   81.8416   9.04664
6.28   78.3372   8.85083
6.3   75.4395   8.68559
6.32   73.1333   8.5518
6.34   71.4223   8.45117
6.36   70.3323   8.38643
6.38   69.9153   8.36154
6.4   70.2581   8.38201
6.42   71.4946   8.45545
6.44   73.8253   8.59217
6.46   77.5505   8.80628
6.48   83.1242   9.11725
6.5   91.2548   9.55274
6.52   103.119   10.1548
6.54   120.87   10.9941
6.56   148.771   12.1972
6.58   195.174   13.9705
6.6   274.884   16.5796
6.62   406.521   20.1624
6.64   604.632   24.5893
6.66   837.085   28.9324
6.68   951.617   30.8483
6.7   821.337   28.659
6.72   586.079   24.2091
6.74   390.267   19.7552
6.76   260.666   16.1452
6.78   182.065   13.4931
6.8   135.183   11.6268
6.82   103.468   10.1719
6.84   84.0949   9.17033
6.86   70.3371   8.38672
6.88   60.1177   7.75356
6.9   52.286   7.23091
6.92   46.1386   6.79254
6.94   41.2154   6.41993
6.96   37.2039   6.0995
6.98   33.8851   5.82109
7   31.1028   5.57699
7.02   28.7427   5.36122
7.04   26.7199   5.16913
7.06   24.9702   4.99702
7.08   23.4444   4.84195
7.1   22.1045   4.70154
7.12   20.9203   4.57387
7.14   19.868   4.45736
7.16   9.29584   4.4
7.18   8.71132   4.4
7.2   8.2013   4.4
7.22   7.756   4.4
7.24   7.3674   4.4
7.26   7.02895   4.4
7.28   6.73527   4.4
7.3   6.48198   4.4
7.32   6.26551   4.4
7.34   6.083   4.4
7.36   5.93224   4.4
7.38   5.81153   4.4
7.4   5.7197   4.4
7.42   5.65605   4.4
7.44   5.62034   4.4
7.46   5.61282   4.4
7.48   5.63421   4.4
7.5   5.68576   4.4
7.52   5.76933   4.4
7.54   5.88743   4.4
7.56   6.04341   4.4
7.58   6.24154   4.4
7.6   6.4873   4.4
7.62   6.78763   4.4
7.64   7.15136   4.4
7.66   7.58971   4.4
7.68   8.11708   4.4
7.7   8.75204   4.4
7.72   9.51882   4.4
7.74   10.4494   4.4
7.76   11.5865   4.4
7.78   13.4306   4.4
7.8   15.1901   4.4
7.82   17.4089   4.4
7.84   20.2514   4.50016
7.86   23.9629   4.89519
7.88   28.9265   5.37833
7.9   35.7904   5.9825
7.92   45.7699   6.76535
7.94   61.2887   7.82871
7.96   86.9636   9.32543
7.98   130.284   11.4142
8   200.314   14.1532
8.02   300.26   17.328
8.04   401.431   20.0358
8.06   421.395   20.5279
8.08   337.167   18.3621
8.1   230.742   15.1902
8.12   150.282   12.2589
8.14   98.0899   9.90403
8.16   67.4923   8.21537
8.18   49.237   7.01691
8.2   37.7692   6.14566
8.22   30.0746   5.48403
8.24   24.5747   4.95728
8.26   20.5036   4.52809
8.28   17.4095   4.4
8.3   15.0097   4.4
8.32   13.117   4.4
8.34   11.6034   4.4
8.36   10.3787   4.4
8.38   9.37831   4.4
8.4   8.55506   4.4
8.42   7.87384   4.4
8.44   7.30825   4.4
8.46   6.83815   4.4
8.48   6.44808   4.4
8.5   6.12606   4.4
8.52   5.86281   4.4
8.54   5.65112   4.4
8.56   5.48544   4.4
8.58   5.36159   4.4
8.6   5.27649   4.4
8.62   5.22806   4.4
8.64   5.35505   4.4
8.66   5.38103   4.4
8.68   5.44255   4.4
8.7   5.54076   4.4
8.72   5.67769   4.4
8.74   5.85628   4.4
8.76   6.0806   4.4
8.78   6.35596   4.4
8.8   6.6893   4.4
8.82   7.0895   4.4
8.84   7.56795   4.4
8.86   8.1393   4.4
8.88   8.82252   4.4
8.9   9.64231   4.4
8.92   10.6313   4.4
8.94   11.8329   4.4
8.96   13.3063   4.4
8.98   15.1327   4.4
9   17.427   4.4
9.02   20.3541   4.51155
9.04   24.1589   4.91517
9.06   29.2205   5.40559
9.08   36.1706   6.0142
9.1   46.1755   6.79526
9.12   61.5521   7.84551
9.14   86.7815   9.31566
9.16   129.373   11.3742
9.18   198.989   14.1063
9.2   301.349   17.3594
9.22   413.779   20.3415
9.24   454.33   21.315
9.26   377.225   19.4223
9.28   262.304   16.1958
9.3   171.336   13.0896
9.32   112.346   10.5993
9.34   76.9602   8.77269
9.36   55.9632   7.48086
9.38   42.9462   6.55334
9.4   34.3197   5.8583
9.42   29.3349   5.41617
9.44   24.9801   4.99801
9.46   21.7777   4.66665
9.48   19.4245   4.40732
9.5   17.7406   4.4
9.52   16.6304   4.4
9.54   15.7328   4.4
9.56   15.9785   4.4
9.58   17.3031   4.4
9.6   20.2108   4.49564
9.62   25.1234   5.01232
9.64   31.3621   5.60019
9.66   34.9837   5.9147
9.68   31.7846   5.63779
9.7   25.0701   5.007
9.72   19.2981   4.4
9.74   15.4933   4.4
9.76   13.2829   4.4
9.78   12.1218   4.4
9.8   11.6079   4.4
9.82   11.5191   4.4
9.84   11.7623   4.4
9.86   12.3215   4.4
9.88   13.2333   4.4
9.9   14.5874   4.4
9.92   16.554   4.4
9.94   19.4983   4.41568
9.96   24.2961   4.92911
9.98   31.705   5.63072
10   44.2266   6.65031
10.02   64.8201   8.05109
10.04   95.5171   9.77329
10.06   130.91   11.4416
10.08   147.224   12.1336
10.1   126.57   11.2503
10.12   91.2455   9.55225
10.14   62.3701   7.89747
10.16   43.5273   6.59752
10.18   32.327   5.68568
10.2   25.8709   5.08635
10.22   22.0852   4.69949
10.24   19.7912   4.44873
10.26   18.3955   4.4
10.28   17.6023   4.4
10.3   17.2545   4.4
10.32   17.2641   4.4
10.34   17.5835   4.4
10.36   18.1927   4.4
10.38   19.0934   4.4
10.4   20.3075   4.50639
10.42   21.8781   4.6774
10.44   23.8746   4.88617
10.46   26.4025   5.13834
10.48   29.6203   5.44245
10.5   33.7744   5.81157
10.52   39.276   6.26706
10.54   46.8812   6.84699
10.56   58.0525   7.61922
10.58   75.4614   8.68685
10.6   103.224   10.1599
10.62   145.922   12.0798
10.64   204.131   14.2875
10.66   257.999   16.0623
10.68   267.351   16.3509
10.7   235.717   15.3531
10.72   207.935   14.4199
10.74   206.194   14.3595
10.76   239.848   15.487
10.78   321.409   17.9279
10.8   469.505   21.6681
10.82   696.846   26.3978
10.84   960.124   30.9859
10.86   1077.34   32.8228
10.88   915.283   30.2536
10.9   644.639   25.3897
10.92   423.717   20.5844
10.94   278.679   16.6937
10.96   191.18   13.8268
10.98   139.235   11.7998
11   107.146   10.3511
11.02   85.9796   9.27252
11.04   71.2038   8.43823
11.06   60.5177   7.77931
11.08   52.651   7.2561
11.1   46.8382   6.84384
11.12   42.5727   6.52478
11.14   39.606   6.29333
11.16   37.74   6.14329
11.18   36.907   6.07511
11.2   37.1392   6.0942
11.22   38.5884   6.21196
11.24   41.5872   6.44882
11.26   46.81   6.84179
11.28   55.6492   7.45984
11.3   70.8945   8.41989
11.32   97.4624   9.8723
11.34   142.21   11.9252
11.36   210.73   14.5165
11.38   294.244   17.1535
11.4   342.575   18.5088
11.42   303.798   17.4298
11.44   220.067   14.8347
11.46   147.287   12.1362
11.48   98.3682   9.91807
11.5   68.5463   8.27927
11.52   50.816   7.12853
11.54   39.7796   6.30711
11.56   32.6298   5.71225
11.58   27.6455   5.2579
11.6   24.0284   4.90188
11.62   21.343   4.61985
11.64   19.3277   4.4
11.66   17.8152   4.4
11.68   16.6957   4.4
11.7   15.8969   4.4
11.72   15.3724   4.4
11.74   15.0955   4.4
11.76   15.0552   4.4
11.78   15.2722   4.4
11.8   15.7304   4.4
11.82   16.4823   4.4
11.84   17.5855   4.4
11.86   19.1281   4.4
11.88   21.2437   4.60908
11.9   24.1362   4.91286
11.92   28.1296   5.30374
11.94   33.8844   5.82103
11.96   42.2375   6.49904
11.98   55.383   7.44198
12   77.2845   8.79116
12.02   114.308   10.6915
12.04   174.011   13.1913
12.06   258.506   16.0781
12.08   341.764   18.4869
12.1   354.096   18.8174
12.12   281.597   16.7809
12.14   193.91   13.9251
12.16   128.872   11.3522
12.18   88.9996   9.43396
12.2   67.454   8.21304
12.22   57.9557   7.61286
12.24   55.7958   7.46966
12.26   55.2908   7.43578
12.28   49.4975   7.03544
12.3   39.1209   6.25467
12.32   28.4967   5.33823
12.34   21.5552   4.64276
12.36   16.8926   4.4
12.38   13.7779   4.4
12.4   11.6141   4.4
12.42   10.0238   4.4
12.44   8.79689   4.4
12.46   7.8187   4.4
12.48   7.02148   4.4
12.5   6.36135   4.4
12.52   5.80792   4.4
12.54   5.33931   4.4
12.56   4.9393   4.4
12.58   4.59568   4.4
12.6   4.29907   4.4
12.62   4.04218   4.4
12.64   3.8193   4.4
12.66   3.62706   4.4
12.68   3.45959   4.4
12.7   3.31518   4.4
12.72   3.1916   4.4
12.74   3.08713   4.4
12.76   3.00049   4.4
12.78   2.93079   4.4
12.8   2.87752   4.4
12.82   2.84106   4.4
12.84   2.82061   4.4
12.86   2.53322   4.4
12.88   2.51781   4.4
12.9   2.56105   4.4
12.92   2.62629   4.4
12.94   2.71687   4.4
12.96   2.83735   4.4
12.98   2.994   4.4
13   3.19555   4.4
13.02   3.45432   4.4
13.04   3.78831   4.4
13.06   4.22516   4.4
13.08   4.81113   4.4
13.1   5.63126   4.4
13.12   6.84583   4.4
13.14   8.73212   4.4
13.16   11.6837   4.4
13.18   16.0639   4.4
13.2   21.58   4.64543
13.22   25.9125   5.09043
13.24   26.2543   5.12389
13.26   25.1028   5.01027
13.28   26.4319   5.1412
13.3   32.5922   5.70896
13.32   45.5636   6.75008
13.34   66.8078   8.1736
13.36   93.3443   9.66148
13.38   108.956   10.4382
13.4   96.4691   9.82187
13.42   69.3865   8.32986
13.44   45.871   6.77281
13.46   30.074   5.48397
13.48   20.4443   4.52154
13.5   14.7162   4.4
13.52   11.1882   4.4
13.54   8.86351   4.4
13.56   7.2302   4.4
13.58   5.69689   4.4
13.6   4.79464   4.4
13.62   4.09583   4.4
13.64   3.54435   4.4
13.66   3.10248   4.4
13.68   2.74302   4.4
13.7   2.44734   4.4
13.72   2.20166   4.4
13.74   1.98652   4.4
13.76   1.7947   4.4
13.78   1.66261   4.4
13.8   1.53801   4.4
13.82   1.43172   4.4
13.84   1.34106   4.4
13.86   1.26395   4.4
13.88   1.19886   4.4
13.9   1.14469   4.4
13.92   1.10231   4.4
13.94   1.06855   4.4
13.96   1.04534   4.4
13.98   1.03419   4.4
14   1.03862   4.4
14.02   1.06624   4.4
14.04   1.13158   4.4
14.06   1.25747   4.4
14.08   1.46932   4.4
14.1   1.76739   4.4
14.12   2.03959   4.4
14.14   2.04634   4.4
14.16   1.80113   4.4
14.18   1.55122   4.4
14.2   1.41048   4.4
14.22   1.38808   4.4
14.24   1.46324   4.4
14.26   1.57913   4.4
14.28   1.62056   4.4
14.3   1.55216   4.4
14.32   1.47347   4.4
14.34   1.44489   4.4
14.36   1.47249   4.4
14.38   1.54921   4.4
14.4   1.6698   4.4
14.42   1.83466   4.4
14.44   2.05031   4.4
14.46   2.32962   4.4
14.48   2.69312   4.4
14.5   3.17245   4.4
14.52   3.81793   4.4
14.54   4.71559   4.4
14.56   6.028   4.4
14.58   8.1175   4.4
14.6   11.5241   4.4
14.62   17.2677   4.4
14.64   26.5069   5.14848
14.66   39.532   6.28744
14.68   52.2453   7.22809
14.7   53.9021   7.3418
14.72   42.5982   6.52673
14.74   29.0561   5.39037
14.76   18.9817   4.4
14.78   12.6038   4.4
14.8   8.81004   4.4
14.82   6.54919   4.4
14.84   5.03274   4.4
14.86   4.08588   4.4
14.88   3.41999   4.4
14.9   2.93818   4.4
14.92   2.58553   4.4
14.94   2.32858   4.4
14.96   2.1466   4.4
14.98   2.02777   4.4
15   1.9676   4.4
15.02   1.96864   4.4
15.04   2.04007   4.4
15.06   2.19497   4.4
15.08   2.45983   4.4
15.1   2.7725   4.4
15.12   3.18109   4.4
15.14   3.88068   4.4
15.16   5.16758   4.4
15.18   7.3713   4.4
15.2   10.6864   4.4
15.22   14.438   4.4
15.24   15.9661   4.4
15.26   13.5723   4.4
15.28   9.82072   4.4
15.3   6.88454   4.4
15.32   5.11279   4.4
15.34   4.25644   4.4
15.36   3.93792   4.4
15.38   3.66371   4.4
15.4   3.12939   4.4
15.42   2.5365   4.4
15.44   2.07969   4.4
15.46   1.77551   4.4
15.48   1.58531   4.4
15.5   1.46997   4.4
15.52   1.40223   4.4
15.54   1.36632   4.4
15.56   1.355   4.4
15.58   1.36191   4.4
15.6   1.38593   4.4
15.62   1.42505   4.4
15.64   1.48166   4.4
15.66   1.55549   4.4
15.68   1.70004   4.4
15.7   1.81575   4.4
15.72   1.95671   4.4
15.74   2.12799   4.4
15.76   2.33603   4.4
15.78   2.59136   4.4
15.8   2.90676   4.4
15.82   3.30108   4.4
15.84   3.80185   4.4
15.86   4.45095   4.4
15.88   5.31707   4.4
15.9   6.52448   4.4
15.92   8.31337   4.4
15.94   11.1335   4.4
15.96   15.7034   4.4
15.98   22.9066   4.78608
16   33.12   5.755
16.02   43.8766   6.62394
16.04   48.093   6.93491
16.06   44.6486   6.68196
16.08   42.2109   6.49699
16.1   46.4494   6.81538
16.12   57.8917   7.60866
16.14   70.574   8.40083
16.16   70.9481   8.42307
16.18   56.4766   7.51509
16.2   39.7575   6.30536
16.22   27.6945   5.26256
16.24   20.6769   4.54718
16.26   17.2397   4.4
16.28   15.2933   4.4
16.3   12.9763   4.4
16.32   10.3775   4.4
16.34   8.30752   4.4
16.36   6.9458   4.4
16.38   6.18148   4.4
16.4   5.90178   4.4
16.42   6.0905   4.4
16.44   6.88199   4.4
16.46   8.58888   4.4
16.48   11.6475   4.4
16.5   16.3134   4.4
16.52   21.5552   4.64276
16.54   23.4395   4.84144
16.56   19.6978   4.43822
16.58   14.1036   4.4
16.6   9.65406   4.4
16.62   6.75306   4.4
16.64   5.00201   4.4
16.66   3.95735   4.4
16.68   3.30951   4.4
16.7   2.87017   4.4
16.72   2.58138   4.4
16.74   2.38396   4.4
16.76   2.25392   4.4
16.78   2.17752   4.4
16.8   2.14714   4.4
16.82   2.15948   4.4
16.84   2.21331   4.4
16.86   2.31561   4.4
16.88   2.4733   4.4
16.9   2.70174   4.4
16.92   3.02709   4.4
16.94   3.4907   4.4
16.96   4.15085   4.4
16.98   5.07473   4.4
17   6.29749   4.4
17.02   7.80896   4.4
17.04   9.92166   4.4
17.06   13.5496   4.4
17.08   19.9295   4.46424
17.1   30.049   5.48169
17.12   43.4614   6.59252
17.14   53.8871   7.34078
17.16   51.0184   7.14272
17.18   38.1475   6.17637
17.2   25.5769   5.05736
17.22   16.8053   4.4
17.24   11.4041   4.4
17.26   8.23092   4.4
17.28   6.35801   4.4
17.3   5.23056   4.4
17.32   4.57752   4.4
17.34   4.27303   4.4
17.36   4.1974   4.4
17.38   4.07564   4.4
17.4   3.63952   4.4
17.42   3.06272   4.4
17.44   2.5865   4.4
17.46   2.25979   4.4
17.48   2.0556   4.4
17.5   2.00981   4.4
17.52   1.95119   4.4
17.54   1.96011   4.4
17.56   2.02608   4.4
17.58   2.16266   4.4
17.6   2.40262   4.4
17.62   2.79284   4.4
17.64   3.46923   4.4
17.66   4.69272   4.4
17.68   6.63899   4.4
17.7   9.28034   4.4
17.72   11.5573   4.4
17.74   11.3878   4.4
17.76   9.04545   4.4
17.78   6.63837   4.4
17.8   5.00625   4.4
17.82   4.12809   4.4
17.84   3.85931   4.4
17.86   4.04406   4.4
17.88   4.76635   4.4
17.9   6.22158   4.4
17.92   8.63463   4.4
17.94   11.872   4.4
17.96   14.4045   4.4
17.98   13.6135   4.4
18   10.4331   4.4
18.02   7.40347   4.4
18.04   5.31444   4.4
18.06   4.04802   4.4
18.08   3.32471   4.4
18.1   2.9182   4.4
18.12   2.69091   4.4
18.14   2.57182   4.4
18.16   2.52653   4.4
18.18   2.5382   4.4
18.2   2.59869   4.4
18.22   2.70517   4.4
18.24   2.85871   4.4
18.26   3.06402   4.4
18.28   3.3622   4.4
18.3   3.70294   4.4
18.32   4.13838   4.4
18.34   4.69949   4.4
18.36   5.43431   4.4
18.38   6.42234   4.4
18.4   7.80844   4.4
18.42   9.87416   4.4
18.44   13.1488   4.4
18.46   18.4922   4.4
18.48   26.9727   5.19352
18.5   39.1126   6.254
18.52   52.1523   7.22166
18.54   57.652   7.59289
18.56   53.7169   7.32918
18.58   50.3402   7.09508
18.6   53.312   7.30151
18.62   59.7563   7.73022
18.64   59.3284   7.70249
18.66   48.0095   6.92889
18.68   34.5153   5.87498
18.7   24.4568   4.94538
18.72   18.18   4.4
18.74   14.6462   4.4
18.76   12.8599   4.4
18.78   12.1948   4.4
18.8   12.3498   4.4
18.82   13.3049   4.4
18.84   15.2817   4.4
18.86   18.874   4.4
18.88   25.2487   5.02481
18.9   36.2404   6.02
18.92   53.8525   7.33843
18.94   77.8955   8.82584
18.96   98.9701   9.94837
18.98   97.9908   9.89903
19   76.0367   8.7199
19.02   52.3318   7.23407
19.04   35.3061   5.9419
19.06   24.7815   4.9781
19.08   18.7134   4.4
19.1   15.3086   4.4
19.12   13.4455   4.4
19.14   12.5629   4.4
19.16   12.4492   4.4
19.18   13.1256   4.4
19.2   14.8413   4.4
19.22   18.1022   4.4
19.24   23.6658   4.86475
19.26   32.1166   5.66715
19.28   42.4636   6.51641
19.3   49.9598   7.06823
19.32   52.325   7.2336
19.34   56.7021   7.53008
19.36   69.147   8.31547
19.38   88.0227   9.38204
19.4   99.5856   9.97926
19.42   88.6575   9.41581
19.44   64.9025   8.05621
19.46   43.9462   6.62919
19.48   29.7823   5.45731
19.5   21.1654   4.60059
19.52   16.1297   4.4
19.54   13.1863   4.4
19.56   11.4765   4.4
19.58   10.6068   4.4
19.6   10.4839   4.4
19.62   11.261   4.4
19.64   13.3524   4.4
19.66   17.3865   4.4
19.68   23.862   4.88488
19.7   31.7998   5.63913
19.72   36.0765   6.00637
19.74   31.7859   5.6379
19.76   23.4239   4.83982
19.78   16.3304   4.4
19.8   11.6222   4.4
19.82   8.79992   4.4
19.84   7.18429   4.4
19.86   6.27946   4.4
19.88   5.81   4.4
19.9   5.65907   4.4
19.92   5.81203   4.4
19.94   6.33346   4.4
19.96   7.35736   4.4
19.98   9.05185   4.4
20   11.4652   4.4