File: xrd-UiO-67/standard/hxl.xye
3   0   4.4
3.02   0   4.4
3.04   0   4.4
3.06   0   4.4
3.08   0   4.4
3.1   0   4.4
3.12   0   4.4
3.14   0   4.4
3.16   0   4.4
3.18   0   4.4
3.2   0   4.4
3.22   0   4.4
3.24   0   4.4
3.26   0   4.4
3.28   0   4.4
3.3   0   4.4
3.32   0   4.4
3.34   0   4.4
3.36   0   4.4
3.38   0   4.4
3.4   0   4.4
3.42   0   4.4
3.44   0   4.4
3.46   0   4.4
3.48   0   4.4
3.5   0   4.4
3.52   0   4.4
3.54   0   4.4
3.56   0   4.4
3.58   0   4.4
3.6   0   4.4
3.62   0   4.4
3.64   0   4.4
3.66   0   4.4
3.68   0   4.4
3.7   0   4.4
3.72   0   4.4
3.74   0   4.4
3.76   0   4.4
3.78   0   4.4
3.8   0   4.4
3.82   0   4.4
3.84   0   4.4
3.86   0   4.4
3.88   0   4.4
3.9   8.28865   4.4
3.92   8.51921   4.4
3.94   8.75953   4.4
3.96   9.01016   4.4
3.98   9.2717   4.4
4   9.54479   4.4
4.02   9.83012   4.4
4.04   10.1284   4.4
4.06   10.4405   4.4
4.08   10.7672   4.4
4.1   11.1095   4.4
4.12   11.4684   4.4
4.14   11.845   4.4
4.16   12.2404   4.4
4.18   12.6559   4.4
4.2   13.0929   4.4
4.22   13.5529   4.4
4.24   14.0376   4.4
4.26   14.5488   4.4
4.28   15.0884   4.4
4.3   15.6585   4.4
4.32   16.2616   4.4
4.34   16.9001   4.4
4.36   17.577   4.4
4.38   18.2953   4.4
4.4   19.0585   4.4
4.42   19.8705   4.45763
4.44   20.7354   4.55361
4.46   21.658   4.65381
4.48   22.6435   4.75852
4.5   23.6977   4.86803
4.52   24.8273   4.9827
4.54   26.0394   5.10288
4.56   27.3424   5.229
4.58   28.7456   5.36149
4.6   30.2595   5.50086
4.62   31.896   5.64766
4.64   33.6688   5.80248
4.66   35.5932   5.96601
4.68   37.6873   6.13899
4.7   39.9713   6.32228
4.72   42.469   6.51682
4.74   45.2078   6.72367
4.76   48.2197   6.94404
4.78   51.5421   7.17929
4.8   55.2193   7.43097
4.82   59.3032   7.70086
4.84   63.8561   7.991
4.86   68.9523   8.30375
4.88   74.6815   8.64184
4.9   81.1526   9.00847
4.92   88.4989   9.40738
4.94   96.8848   9.84301
4.96   106.515   10.3206
4.98   117.647   10.8465
5   140.324   11.8458
5.02   155.805   12.4822
5.04   174.094   13.1945
5.06   195.916   13.997
5.08   222.242   14.9078
5.1   254.398   15.9499
5.12   294.228   17.1531
5.14   344.355   18.5568
5.16   408.61   20.2141
5.18   492.781   22.1987
5.2   606.135   24.6198
5.22   764.929   27.6574
5.24   1000.61   31.6323
5.26   1375.71   37.0905
5.28   2004.12   44.7674
5.3   3055.57   55.2772
5.32   4700.37   68.5593
5.34   6861.63   82.835
5.36   8533.85   92.3789
5.38   8072.36   89.8463
5.4   6008.09   77.5119
5.42   3997.38   63.2248
5.44   2595.19   50.943
5.46   1729.59   41.5884
5.48   1216.88   34.8838
5.5   906.796   30.1131
5.52   707.211   26.5934
5.54   569.881   23.8722
5.56   470.608   21.6935
5.58   396.456   19.9112
5.6   339.764   18.4327
5.62   295.624   17.1937
5.64   260.745   16.1476
5.66   232.85   15.2594
5.68   210.331   14.5028
5.7   192.025   13.8573
5.72   177.082   13.3072
5.74   164.868   12.8401
5.76   155.378   12.4651
5.78   147.323   12.1377
5.8   140.888   11.8696
5.82   135.864   11.6561
5.84   132.096   11.4933
5.86   129.47   11.3785
5.88   127.906   11.3095
5.9   127.355   11.2851
5.92   127.795   11.3046
5.94   129.229   11.3679
5.96   131.687   11.4755
5.98   135.225   11.6286
6   139.929   11.8291
6.02   145.92   12.0797
6.04   153.361   12.3839
6.06   162.466   12.7462
6.08   173.515   13.1725
6.1   186.872   13.6701
6.12   203.013   14.2483
6.14   222.565   14.9186
6.16   246.364   15.696
6.18   275.536   16.5993
6.2   311.625   17.6529
6.22   356.783   18.8887
6.24   414.077   20.3489
6.26   487.989   22.0905
6.28   585.297   24.1929
6.3   716.861   26.7743
6.32   901.732   30.0289
6.34   1176.77   34.3041
6.36   1615.3   40.1908
6.38   2350.82   48.4852
6.4   3582.3   59.8523
6.42   5509.35   74.225
6.44   8041.61   89.675
6.46   10000   100
6.48   9456.95   97.2469
6.5   7035.86   83.88
6.52   4677.99   68.3958
6.54   3033.43   55.0766
6.56   2017.76   44.9195
6.58   1415.64   37.6249
6.6   1050.95   32.4184
6.62   815.73   28.561
6.64   653.431   25.5623
6.66   535.694   23.1451
6.68   447.353   21.1507
6.7   379.423   19.4788
6.72   326.149   18.0596
6.74   283.666   16.8424
6.76   249.302   15.7893
6.78   221.166   14.8717
6.8   197.893   14.0674
6.82   178.48   13.3596
6.84   153.98   12.4089
6.86   140.459   11.8515
6.88   129.067   11.3607
6.9   119.49   10.9312
6.92   111.502   10.5594
6.94   104.947   10.2443
6.96   99.7377   9.98688
6.98   95.8583   9.79073
7   93.3743   9.66304
7.02   92.4627   9.61575
7.04   93.471   9.66804
7.06   97.0553   9.85167
7.08   104.513   10.2232
7.1   118.498   10.8857
7.12   144.125   12.0052
7.14   189.753   13.7751
7.16   265.588   16.2969
7.18   375.507   19.378
7.2   488.155   22.0942
7.22   510.99   22.6051
7.24   415.426   20.382
7.26   293.376   17.1282
7.28   200.383   14.1557
7.3   140.524   11.8543
7.32   104.272   10.2114
7.34   82.1748   9.06503
7.36   67.8993   8.2401
7.38   57.9686   7.61371
7.4   50.6323   7.11564
7.42   44.9823   6.70688
7.44   40.4987   6.36386
7.46   36.8551   6.07084
7.48   33.8344   5.81673
7.5   31.2869   5.59347
7.52   29.1066   5.39505
7.54   27.2273   5.21798
7.56   25.5709   5.05677
7.58   24.1051   4.90969
7.6   22.7968   4.7746
7.62   21.6205   4.64979
7.64   20.556   4.53388
7.66   19.5871   4.42573
7.68   18.7006   4.4
7.7   17.8858   4.4
7.72   17.1339   4.4
7.74   16.4375   4.4
7.76   15.7903   4.4
7.78   15.1871   4.4
7.8   14.6233   4.4
7.82   14.0951   4.4
7.84   13.5991   4.4
7.86   14.4633   4.4
7.88   14.0609   4.4
7.9   13.6846   4.4
7.92   13.3325   4.4
7.94   3.3879   4.4
7.96   3.33471   4.4
7.98   3.29119   4.4
8   3.25673   4.4
8.02   3.23079   4.4
8.04   3.21295   4.4
8.06   3.20284   4.4
8.08   3.20019   4.4
8.1   3.20478   4.4
8.12   3.21646   4.4
8.14   3.23513   4.4
8.16   3.26074   4.4
8.18   3.29331   4.4
8.2   3.33289   4.4
8.22   3.37959   4.4
8.24   3.43359   4.4
8.26   3.49508   4.4
8.28   3.56435   4.4
8.3   3.64171   4.4
8.32   3.72757   4.4
8.34   3.82238   4.4
8.36   3.92667   4.4
8.38   4.04105   4.4
8.4   4.16623   4.4
8.42   4.303   4.4
8.44   4.45229   4.4
8.46   4.61514   4.4
8.48   4.79274   4.4
8.5   4.98646   4.4
8.52   5.19785   4.4
8.54   5.42869   4.4
8.56   5.68105   4.4
8.58   5.9573   4.4
8.6   6.26017   4.4
8.62   6.59287   4.4
8.64   6.95911   4.4
8.66   7.36331   4.4
8.68   7.81065   4.4
8.7   7.85782   4.4
8.72   8.42321   4.4
8.74   9.05411   4.4
8.76   9.76182   4.4
8.78   10.5605   4.4
8.8   11.4684   4.4
8.82   12.5096   4.4
8.84   13.7177   4.4
8.86   15.1442   4.4
8.88   16.8752   4.4
8.9   19.0576   4.4
8.92   21.9212   4.68201
8.94   25.754   5.07484
8.96   30.7365   5.54405
8.98   36.3265   6.02714
9   40.5801   6.37025
9.02   42.7935   6.54168
9.04   45.2255   6.72499
9.06   49.5594   7.03985
9.08   56.3775   7.50849
9.1   66.1227   8.13159
9.12   79.5767   8.92058
9.14   98.2235   9.91078
9.16   124.92   11.1768
9.18   165.406   12.861
9.2   231.034   15.1998
9.22   341.718   18.4856
9.24   525.194   22.9171
9.26   804.138   28.3573
9.28   1143.46   33.8151
9.3   1340.68   36.6153
9.32   1183.93   34.4082
9.34   847.195   29.1066
9.36   556.059   23.5809
9.38   361.058   19.0015
9.4   242.566   15.5745
9.42   172.347   13.1281
9.44   129.282   11.3702
9.46   101.031   10.0514
9.48   81.2715   9.01507
9.5   66.8076   8.17359
9.52   55.8875   7.47579
9.54   47.4498   6.88838
9.56   40.8047   6.38786
9.58   35.4851   5.95694
9.6   31.1656   5.58262
9.62   27.6143   5.25493
9.64   24.6624   4.96612
9.66   22.185   4.7101
9.68   20.0881   4.48198
9.7   18.3   4.4
9.72   16.765   4.4
9.74   15.4398   4.4
9.76   14.29   4.4
9.78   13.2881   4.4
9.8   12.4121   4.4
9.82   11.6439   4.4
9.84   10.9691   4.4
9.86   10.3754   4.4
9.88   11.255   4.4
9.9   10.8351   4.4
9.92   10.4733   4.4
9.94   10.164   4.4
9.96   9.90272   4.4
9.98   9.68576   4.4
10   9.51019   4.4
10.02   9.37371   4.4
10.04   9.27462   4.4
10.06   9.21176   4.4
10.08   9.18449   4.4
10.1   9.19267   4.4
10.12   9.23666   4.4
10.14   9.31737   4.4
10.16   9.43628   4.4
10.18   9.59548   4.4
10.2   9.79779   4.4
10.22   10.0468   4.4
10.24   10.3473   4.4
10.26   10.7049   4.4
10.28   11.1269   4.4
10.3   11.6224   4.4
10.32   12.2027   4.4
10.34   12.9001   4.4
10.36   13.697   4.4
10.38   14.634   4.4
10.4   15.7407   4.4
10.42   17.0559   4.4
10.44   18.6308   4.4
10.46   20.5234   4.53028
10.48   22.8491   4.78008
10.5   25.7279   5.07226
10.52   29.3458   5.41717
10.54   33.9753   5.82883
10.56   40.0295   6.32688
10.58   48.1741   6.94076
10.6   59.5887   7.71937
10.62   76.5696   8.7504
10.64   104.254   10.2105
10.66   149.643   12.2329
10.68   225.141   15.0047
10.7   341.785   18.4874
10.72   490.548   22.1483
10.74   594.364   24.3796
10.76   546.231   23.3716
10.78   402.602   20.065
10.8   270.13   16.4356
10.82   179.69   13.4048
10.84   124.657   11.165
10.86   92.5473   9.62015
10.88   73.549   8.57607
10.9   61.7827   7.8602
10.92   54.2177   7.36327
10.94   49.3529   7.02516
10.96   46.4054   6.81215
10.98   44.9395   6.70369
11   44.7147   6.68691
11.02   45.6198   6.75425
11.04   47.6444   6.90249
11.06   50.8706   7.13236
11.08   55.4812   7.44857
11.1   61.7848   7.86033
11.12   70.2651   8.38243
11.14   81.67   9.03715
11.16   97.184   9.8582
11.18   118.806   10.8998
11.2   150.249   12.2576
11.22   198.915   14.1037
11.24   279.114   16.7067
11.26   414.769   20.3659
11.28   636.51   25.2291
11.3   961.3   31.0048
11.32   1316.35   36.2815
11.34   1439.36   37.9389
11.36   1190.94   34.5101
11.38   826.865   28.7553
11.4   539.922   23.2362
11.42   354.091   18.8173
11.44   242.61   15.576
11.46   176.354   13.2798
11.48   135.148   11.6253
11.5   107.905   10.3877
11.52   88.5486   9.41003
11.54   74.3554   8.62295
11.56   63.6905   7.98063
11.58   55.5497   7.45317
11.6   49.2823   7.02014
11.62   44.4605   6.66787
11.64   40.8127   6.38848
11.66   38.1999   6.18061
11.68   36.6249   6.05185
11.7   36.2534   6.02108
11.72   37.3897   6.11471
11.74   40.2842   6.34698
11.76   44.3821   6.66199
11.78   46.8422   6.84413
11.8   44.9706   6.70601
11.82   41.3298   6.42883
11.84   38.9809   6.24347
11.86   38.6861   6.21982
11.88   40.3833   6.35479
11.9   44.0252   6.63515
11.92   49.8613   7.06125
11.94   58.6354   7.65737
11.96   71.975   8.48381
11.98   93.2581   9.65702
12   128.98   11.3569
12.02   189.694   13.7729
12.04   288.155   16.9751
12.06   428.767   20.7067
12.08   570.713   23.8896
12.1   597.638   24.4466
12.12   478.157   21.8668
12.14   328.064   18.1125
12.16   214.725   14.6535
12.18   142.446   11.9351
12.2   99.2377   9.96181
12.22   72.8212   8.53353
12.24   56.5204   7.51801
12.26   45.4954   6.74502
12.28   37.6017   6.13202
12.3   31.7283   5.63279
12.32   27.2397   5.21916
12.34   23.7381   4.87218
12.36   20.9604   4.57825
12.38   18.7263   4.4
12.4   16.9094   4.4
12.42   15.4192   4.4
12.44   14.1898   4.4
12.46   13.173   4.4
12.48   12.3328   4.4
12.5   11.6427   4.4
12.52   11.0835   4.4
12.54   10.6413   4.4
12.56   10.3073   4.4
12.58   10.0767   4.4
12.6   9.94919   4.4
12.62   9.92845   4.4
12.64   10.0233   4.4
12.66   10.2487   4.4
12.68   10.6276   4.4
12.7   11.1944   4.4
12.72   11.9994   4.4
12.74   13.1174   4.4
12.76   14.6647   4.4
12.78   16.8143   4.4
12.8   18.4864   4.4
12.82   23.0664   4.80275
12.84   30.2745   5.50223
12.86   42.2916   6.5032
12.88   62.6441   7.9148
12.9   95.5733   9.77616
12.92   142.475   11.9363
12.94   189.522   13.7667
12.96   197.925   14.0686
12.98   157.904   12.566
13   108.341   10.4087
13.02   70.8376   8.4165
13.04   46.9502   6.85202
13.06   32.6784   5.71651
13.08   24.1371   4.91296
13.1   18.7462   4.4
13.12   15.0966   4.4
13.14   12.4808   4.4
13.16   10.5316   4.4
13.18   9.03895   4.4
13.2   7.8711   4.4
13.22   6.94074   4.4
13.24   6.17044   4.4
13.26   5.5536   4.4
13.28   5.04184   4.4
13.3   4.61294   4.4
13.32   4.2503   4.4
13.34   3.94134   4.4
13.36   3.67642   4.4
13.38   3.44802   4.4
13.4   3.25026   4.4
13.42   3.07845   4.4
13.44   2.92883   4.4
13.46   2.7984   4.4
13.48   2.68469   4.4
13.5   2.58572   4.4
13.52   2.49987   4.4
13.54   2.42579   4.4
13.56   2.3624   4.4
13.58   1.7479   4.4
13.6   1.71823   4.4
13.62   1.69656   4.4
13.64   1.6825   4.4
13.66   1.67577   4.4
13.68   1.67623   4.4
13.7   1.68382   4.4
13.72   1.69858   4.4
13.74   1.72067   4.4
13.76   1.75034   4.4
13.78   1.78796   4.4
13.8   1.83404   4.4
13.82   1.88922   4.4
13.84   2.0938   4.4
13.86   2.17372   4.4
13.88   2.26592   4.4
13.9   2.3719   4.4
13.92   2.49351   4.4
13.94   2.63302   4.4
13.96   2.79763   4.4
13.98   2.98219   4.4
14   3.19538   4.4
14.02   3.44285   4.4
14.04   3.73199   4.4
14.06   4.07266   4.4
14.08   4.47884   4.4
14.1   4.97176   4.4
14.12   5.58611   4.4
14.14   6.37851   4.4
14.16   7.43232   4.4
14.18   8.84492   4.4
14.2   10.658   4.4
14.22   12.6374   4.4
14.24   14.2665   4.4
14.26   15.7404   4.4
14.28   17.8864   4.4
14.3   21.3174   4.61708
14.32   26.6896   5.16619
14.34   35.2626   5.93823
14.36   49.5388   7.03838
14.38   73.7567   8.58817
14.4   113.365   10.6473
14.42   171.371   13.0909
14.44   234.536   15.3146
14.46   256.379   16.0118
14.48   211.968   14.5591
14.5   147.028   12.1255
14.52   95.8724   9.79145
14.54   62.7553   7.92183
14.56   42.8948   6.54941
14.58   31.0949   5.57628
14.6   23.7588   4.8743
14.62   18.876   4.4
14.64   15.432   4.4
14.66   12.9059   4.4
14.68   10.9999   4.4
14.7   9.62391   4.4
14.72   8.47158   4.4
14.74   7.56349   4.4
14.76   6.84529   4.4
14.78   6.27685   4.4
14.8   5.829   4.4
14.82   5.48078   4.4
14.84   5.21736   4.4
14.86   5.02858   4.4
14.88   4.908   4.4
14.9   4.85234   4.4
14.92   4.86121   4.4
14.94   4.93724   4.4
14.96   5.08638   4.4
14.98   5.3186   4.4
15   5.64916   4.4
15.02   6.1005   4.4
15.04   6.70545   4.4
15.06   7.51224   4.4
15.08   8.64226   4.4
15.1   10.1113   4.4
15.12   12.1543   4.4
15.14   15.1155   4.4
15.16   19.678   4.43598
15.18   27.1697   5.21246
15.2   39.8426   6.3121
15.22   60.6569   7.78825
15.24   91.5115   9.56616
15.26   126.442   11.2447
15.28   141.104   11.8787
15.3   119.183   10.9171
15.32   83.95   9.16242
15.34   55.651   7.45996
15.36   37.4657   6.12092
15.38   27.0227   5.19833
15.4   21.4586   4.63234
15.42   18.3343   4.4
15.44   15.5891   4.4
15.46   12.6414   4.4
15.48   10.1065   4.4
15.5   8.22894   4.4
15.52   6.9023   4.4
15.54   5.96431   4.4
15.56   5.2845   4.4
15.58   4.77702   4.4
15.6   4.39071   4.4
15.62   4.09547   4.4
15.64   3.87272   4.4
15.66   3.71056   4.4
15.68   3.60145   4.4
15.7   3.54114   4.4
15.72   3.5253   4.4
15.74   3.56099   4.4
15.76   3.78889   4.4
15.78   3.94236   4.4
15.8   4.17096   4.4
15.82   4.49859   4.4
15.84   4.96907   4.4
15.86   5.66604   4.4
15.88   6.74135   4.4
15.9   8.43021   4.4
15.92   10.7549   4.4
15.94   14.2705   4.4
15.96   17.7545   4.4
15.98   19.0254   4.4
16   18.2829   4.4
16.02   18.1754   4.4
16.04   20.4431   4.52141
16.06   26.3774   5.13589
16.08   37.6778   6.13823
16.1   56.0659   7.48772
16.12   80.477   8.97089
16.14   99.2467   9.96226
16.16   93.6557   9.67759
16.18   70.0063   8.36698
16.2   47.1209   6.86447
16.22   31.2205   5.58753
16.24   21.4569   4.63216
16.26   15.7448   4.4
16.28   12.3652   4.4
16.3   10.2896   4.4
16.32   8.98474   4.4
16.34   8.19698   4.4
16.36   7.81126   4.4
16.38   7.79148   4.4
16.4   8.17052   4.4
16.42   9.08107   4.4
16.44   10.8369   4.4
16.46   14.0525   4.4
16.48   19.6807   4.43629
16.5   28.7696   5.36373
16.52   41.2226   6.42049
16.54   52.0409   7.21394
16.56   51.0947   7.14806
16.58   39.372   6.27471
16.6   27.0046   5.1966
16.62   18.1502   4.4
16.64   12.6263   4.4
16.66   9.35302   4.4
16.68   7.39506   4.4
16.7   6.16216   4.4
16.72   5.34117   4.4
16.74   4.64102   4.4
16.76   4.25344   4.4
16.78   3.99323   4.4
16.8   3.83214   4.4
16.82   3.75298   4.4
16.84   3.74598   4.4
16.86   3.80692   4.4
16.88   3.93619   4.4
16.9   4.13859   4.4
16.92   4.41938   4.4
16.94   4.80263   4.4
16.96   5.30702   4.4
16.98   5.96654   4.4
17   6.83134   4.4
17.02   7.9767   4.4
17.04   9.51999   4.4
17.06   11.6572   4.4
17.08   14.7502   4.4
17.1   19.5179   4.41791
17.12   27.3543   5.23013
17.14   40.6056   6.37225
17.16   62.3144   7.89395
17.18   94.2975   9.71069
17.2   129.862   11.3957
17.22   143.565   11.9818
17.24   119.847   10.9475
17.26   83.5607   9.14115
17.28   54.6311   7.39129
17.3   35.8138   5.98446
17.32   24.5064   4.95039
17.34   17.7892   4.4
17.36   13.6193   4.4
17.38   10.848   4.4
17.4   8.8947   4.4
17.42   7.48158   4.4
17.44   6.40705   4.4
17.46   5.57724   4.4
17.48   4.94898   4.4
17.5   4.46912   4.4
17.52   4.11135   4.4
17.54   3.86222   4.4
17.56   3.72194   4.4
17.58   3.71123   4.4
17.6   3.88645   4.4
17.62   4.26452   4.4
17.64   5.19941   4.4
17.66   6.74757   4.4
17.68   8.76883   4.4
17.7   10.1421   4.4
17.72   9.37014   4.4
17.74   7.25664   4.4
17.76   5.33687   4.4
17.78   4.04499   4.4
17.8   3.29591   4.4
17.82   2.93695   4.4
17.84   2.87207   4.4
17.86   3.07298   4.4
17.88   3.52373   4.4
17.9   4.0566   4.4
17.92   4.17083   4.4
17.94   3.63837   4.4
17.96   2.93542   4.4
17.98   2.49063   4.4
18   2.14627   4.4
18.02   1.94551   4.4
18.04   1.96037   4.4
18.06   1.90973   4.4
18.08   1.89293   4.4
18.1   1.90007   4.4
18.12   1.92642   4.4
18.14   1.96972   4.4
18.16   2.02912   4.4
18.18   2.10469   4.4
18.2   2.19726   4.4
18.22   2.30834   4.4
18.24   2.44014   4.4
18.26   2.5957   4.4
18.28   2.77903   4.4
18.3   3.05734   4.4
18.32   3.31528   4.4
18.34   3.6222   4.4
18.36   3.99011   4.4
18.38   4.43518   4.4
18.4   4.97954   4.4
18.42   5.65402   4.4
18.44   6.50257   4.4
18.46   7.58938   4.4
18.48   9.01181   4.4
18.5   10.9264   4.4
18.52   13.61   4.4
18.54   17.6002   4.4
18.56   23.9635   4.89525
18.58   34.6201   5.88389
18.6   52.3634   7.23625
18.62   79.8499   8.93588
18.64   115.141   10.7304
18.66   140.375   11.848
18.68   129.951   11.3996
18.7   96.0801   9.80205
18.72   64.5506   8.03434
18.74   43.0616   6.56213
18.76   30.1818   5.4938
18.78   23.0674   4.80285
18.8   19.5988   4.42705
18.82   18.7187   4.4
18.84   20.0871   4.48186
18.86   23.315   4.82856
18.88   26.3737   5.13554
18.9   25.3626   5.03613
18.92   20.4462   4.52175
18.94   15.3961   4.4
18.96   11.7768   4.4
18.98   9.51007   4.4
19   8.17747   4.4
19.02   7.41764   4.4
19.04   7.0028   4.4
19.06   6.81335   4.4
19.08   6.7926   4.4
19.1   6.91573   4.4
19.12   7.17528   4.4
19.14   7.57575   4.4
19.16   8.13242   4.4
19.18   8.86443   4.4
19.2   9.83002   4.4
19.22   11.0839   4.4
19.24   12.72   4.4
19.26   14.8817   4.4
19.28   17.8005   4.4
19.3   21.8817   4.67779
19.32   27.8877   5.28088
19.34   37.2515   6.1034
19.36   52.4366   7.24131
19.38   77.0101   8.77554
19.4   114.381   10.6949
19.42   161.819   12.7208
19.44   203.315   14.2588
19.46   228.443   15.1143
19.48   230.44   15.1802
19.5   192.584   13.8775
19.52   137.047   11.7067
19.54   91.8768   9.58524
19.56   62.2429   7.88942
19.58   44.4268   6.66534
19.6   34.0809   5.83788
19.62   28.16   5.3066
19.64   25.0345   5.00345
19.66   24.1454   4.9138
19.68   25.7361   5.07307
19.7   30.7032   5.54105
19.72   40.2519   6.34443
19.74   54.5904   7.38853
19.76   68.6663   8.28651
19.78   69.6291   8.3444
19.8   55.4391   7.44574
19.82   38.845   6.23258
19.84   26.4904   5.14688
19.86   18.5903   4.4
19.88   13.8098   4.4
19.9   10.9022   4.4
19.92   9.06044   4.4
19.94   7.86726   4.4
19.96   7.14547   4.4
19.98   6.83541   4.4
20   6.88956   4.4