File: xrd-UiO-67/standard/UiO.ASC
3 1016
3.02 991
3.04 937
3.06 968
3.08 935
3.1 894
3.12 884
3.14 848
3.16 867
3.18 833
3.2 847
3.22 828
3.24 811
3.26 834
3.28 827
3.3 835
3.32 813
3.34 839
3.36 764
3.38 821
3.4 770
3.42 781
3.44 761
3.46 744
3.48 768
3.5 751
3.52 771
3.54 748
3.56 729
3.58 754
3.6 715
3.62 759
3.64 717
3.66 714
3.68 724
3.7 702
3.72 725
3.74 670
3.76 673
3.78 653
3.8 687
3.82 684
3.84 722
3.86 707
3.88 693
3.9 667
3.92 657
3.94 660
3.96 673
3.98 668
4 667
4.02 643
4.04 678
4.06 622
4.08 632
4.1 629
4.12 615
4.14 628
4.16 617
4.18 658
4.2 631
4.22 606
4.24 596
4.26 607
4.28 587
4.3 600
4.32 607
4.34 598
4.36 619
4.38 593
4.4 592
4.42 592
4.44 581
4.46 639
4.48 638
4.5 649
4.52 630
4.54 636
4.56 605
4.58 656
4.6 643
4.62 597
4.64 650
4.66 638
4.68 625
4.7 692
4.72 641
4.74 620
4.76 624
4.78 702
4.8 680
4.82 709
4.84 703
4.86 707
4.88 727
4.9 744
4.92 698
4.94 765
4.96 754
4.98 791
5 783
5.02 805
5.04 829
5.06 846
5.08 849
5.1 969
5.12 923
5.14 962
5.16 1054
5.18 1079
5.2 1146
5.22 1157
5.24 1197
5.26 1196
5.28 1294
5.3 1354
5.32 1358
5.34 1419
5.36 1551
5.38 1656
5.4 1822
5.42 1919
5.44 1998
5.46 2232
5.48 2521
5.5 2704
5.52 2952
5.54 3271
5.56 3593
5.58 3777
5.6 4316
5.62 4854
5.64 5423
5.66 6504
5.68 8311
5.7 11741
5.72 17084
5.74 17877
5.76 12020
5.78 6540
5.8 2941
5.82 1562
5.84 1151
5.86 1123
5.88 1060
5.9 954
5.92 881
5.94 924
5.96 848
5.98 903
6 923
6.02 860
6.04 865
6.06 905
6.08 888
6.1 890
6.12 914
6.14 936
6.16 969
6.18 959
6.2 1031
6.22 1054
6.24 1072
6.26 1109
6.28 1114
6.3 1236
6.32 1223
6.34 1350
6.36 1418
6.38 1468
6.4 1650
6.42 1737
6.44 1859
6.46 2028
6.48 2183
6.5 2323
6.52 2566
6.54 2978
6.56 3416
6.58 4107
6.6 5485
6.62 6229
6.64 5087
6.66 3102
6.68 1567
6.7 934
6.72 724
6.74 696
6.76 702
6.78 704
6.8 663
6.82 645
6.84 648
6.86 614
6.88 620
6.9 617
6.92 634
6.94 562
6.96 626
6.98 583
7 588
7.02 583
7.04 545
7.06 572
7.08 537
7.1 476
7.12 571
7.14 574
7.16 547
7.18 553
7.2 570
7.22 576
7.24 576
7.26 575
7.28 528
7.3 546
7.32 565
7.34 536
7.36 516
7.38 532
7.4 568
7.42 520
7.44 528
7.46 544
7.48 493
7.5 520
7.52 558
7.54 539
7.56 522
7.58 527
7.6 542
7.62 537
7.64 505
7.66 525
7.68 544
7.7 509
7.72 517
7.74 522
7.76 524
7.78 512
7.8 548
7.82 520
7.84 523
7.86 487
7.88 550
7.9 520
7.92 468
7.94 454
7.96 534
7.98 462
8 496
8.02 509
8.04 517
8.06 511
8.08 481
8.1 541
8.12 489
8.14 512
8.16 488
8.18 500
8.2 504
8.22 489
8.24 522
8.26 510
8.28 498
8.3 537
8.32 504
8.34 472
8.36 497
8.38 537
8.4 516
8.42 509
8.44 528
8.46 578
8.48 518
8.5 520
8.52 502
8.54 516
8.56 518
8.58 474
8.6 513
8.62 550
8.64 492
8.66 515
8.68 516
8.7 552
8.72 512
8.74 526
8.76 572
8.78 573
8.8 579
8.82 572
8.84 625
8.86 641
8.88 602
8.9 637
8.92 710
8.94 666
8.96 678
8.98 753
9 703
9.02 804
9.04 816
9.06 849
9.08 939
9.1 958
9.12 1059
9.14 1136
9.16 1223
9.18 1344
9.2 1450
9.22 1603
9.24 1678
9.26 1925
9.28 2366
9.3 2861
9.32 4022
9.34 5144
9.36 5034
9.38 3571
9.4 1993
9.42 1131
9.44 702
9.46 655
9.48 616
9.5 605
9.52 518
9.54 556
9.56 522
9.58 531
9.6 530
9.62 517
9.64 522
9.66 507
9.68 561
9.7 536
9.72 509
9.74 516
9.76 517
9.78 529
9.8 507
9.82 520
9.84 512
9.86 479
9.88 519
9.9 521
9.92 522
9.94 505
9.96 506
9.98 533
10 500
10.02 520
10.04 527
10.06 520
10.08 471
10.1 517
10.12 457
10.14 494
10.16 499
10.18 488
10.2 515
10.22 506
10.24 500
10.26 530
10.28 507
10.3 515
10.32 563
10.34 574
10.36 552
10.38 549
10.4 555
10.42 559
10.44 539
10.46 589
10.48 567
10.5 602
10.52 594
10.54 603
10.56 590
10.58 628
10.6 688
10.62 660
10.64 692
10.66 723
10.68 775
10.7 844
10.72 923
10.74 941
10.76 1024
10.78 1112
10.8 1230
10.82 1376
10.84 1390
10.86 1551
10.88 1907
10.9 2183
10.92 2718
10.94 3672
10.96 4402
10.98 3862
11 2579
11.02 1414
11.04 929
11.06 729
11.08 672
11.1 693
11.12 684
11.14 658
11.16 662
11.18 676
11.2 756
11.22 727
11.24 772
11.26 812
11.28 844
11.3 925
11.32 959
11.34 1035
11.36 1121
11.38 1409
11.4 1759
11.42 2326
11.44 3031
11.46 2852
11.48 2162
11.5 1274
11.52 823
11.54 640
11.56 596
11.58 563
11.6 572
11.62 535
11.64 498
11.66 526
11.68 524
11.7 513
11.72 530
11.74 520
11.76 530
11.78 531
11.8 491
11.82 514
11.84 556
11.86 496
11.88 500
11.9 522
11.92 517
11.94 543
11.96 524
11.98 487
12 549
12.02 539
12.04 558
12.06 499
12.08 495
12.1 475
12.12 541
12.14 508
12.16 532
12.18 522
12.2 483
12.22 475
12.24 474
12.26 481
12.28 541
12.3 523
12.32 520
12.34 512
12.36 504
12.38 517
12.4 470
12.42 488
12.44 507
12.46 541
12.48 514
12.5 530
12.52 533
12.54 457
12.56 500
12.58 485
12.6 468
12.62 573
12.64 545
12.66 518
12.68 468
12.7 521
12.72 516
12.74 536
12.76 517
12.78 516
12.8 498
12.82 470
12.84 514
12.86 489
12.88 506
12.9 520
12.92 565
12.94 577
12.96 521
12.98 592
13 562
13.02 594
13.04 665
13.06 596
13.08 614
13.1 671
13.12 681
13.14 700
13.16 777
13.18 856
13.2 1016
13.22 1140
13.24 1022
13.26 885
13.28 677
13.3 574
13.32 490
13.34 527
13.36 538
13.38 540
13.4 560
13.42 527
13.44 548
13.46 510
13.48 527
13.5 519
13.52 544
13.54 536
13.56 531
13.58 539
13.6 543
13.62 486
13.64 512
13.66 502
13.68 513
13.7 502
13.72 496
13.74 524
13.76 532
13.78 483
13.8 550
13.82 504
13.84 562
13.86 521
13.88 551
13.9 520
13.92 569
13.94 559
13.96 509
13.98 548
14 495
14.02 540
14.04 562
14.06 556
14.08 559
14.1 559
14.12 555
14.14 552
14.16 600
14.18 620
14.2 585
14.22 588
14.24 572
14.26 602
14.28 617
14.3 632
14.32 679
14.34 703
14.36 759
14.38 925
14.4 1054
14.42 1061
14.44 973
14.46 789
14.48 691
14.5 579
14.52 561
14.54 540
14.56 557
14.58 532
14.6 573
14.62 565
14.64 551
14.66 588
14.68 552
14.7 606
14.72 572
14.74 602
14.76 671
14.78 686
14.8 714
14.82 651
14.84 593
14.86 568
14.88 578
14.9 555
14.92 556
14.94 535
14.96 573
14.98 556
15 557
15.02 541
15.04 547
15.06 530
15.08 595
15.1 575
15.12 550
15.14 554
15.16 546
15.18 603
15.2 610
15.22 599
15.24 583
15.26 574
15.28 551
15.3 561
15.32 519
15.34 598
15.36 579
15.38 607
15.4 580
15.42 567
15.44 605
15.46 602
15.48 511
15.5 576
15.52 562
15.54 542
15.56 569
15.58 566
15.6 580
15.62 592
15.64 636
15.66 568
15.68 589
15.7 605
15.72 573
15.74 573
15.76 557
15.78 584
15.8 595
15.82 587
15.84 580
15.86 607
15.88 583
15.9 574
15.92 579
15.94 551
15.96 595
15.98 555
16 585
16.02 595
16.04 608
16.06 549
16.08 605
16.1 604
16.12 632
16.14 610
16.16 602
16.18 645
16.2 666
16.22 642
16.24 623
16.26 622
16.28 666
16.3 634
16.32 627
16.34 585
16.36 599
16.38 642
16.4 615
16.42 689
16.44 645
16.46 591
16.48 648
16.5 606
16.52 643
16.54 654
16.56 657
16.58 658
16.6 642
16.62 652
16.64 653
16.66 629
16.68 634
16.7 622
16.72 617
16.74 638
16.76 648
16.78 727
16.8 676
16.82 731
16.84 710
16.86 744
16.88 771
16.9 841
16.92 841
16.94 852
16.96 784
16.98 708
17 718
17.02 706
17.04 747
17.06 714
17.08 740
17.1 758
17.12 866
17.14 885
17.16 986
17.18 1181
17.2 1128
17.22 1016
17.24 931
17.26 779
17.28 725
17.3 706
17.32 670
17.34 686
17.36 715
17.38 708
17.4 686
17.42 704
17.44 672
17.46 665
17.48 695
17.5 707
17.52 719
17.54 749
17.56 730
17.58 678
17.6 717
17.62 709
17.64 748
17.66 704
17.68 719
17.7 728
17.72 720
17.74 711
17.76 781
17.78 722
17.8 745
17.82 728
17.84 709
17.86 713
17.88 683
17.9 754
17.92 821
17.94 751
17.96 751
17.98 747
18 698
18.02 756
18.04 715
18.06 733
18.08 740
18.1 762
18.12 743
18.14 744
18.16 701
18.18 752
18.2 720
18.22 727
18.24 780
18.26 789
18.28 767
18.3 778
18.32 768
18.34 730
18.36 757
18.38 809
18.4 762
18.42 761
18.44 766
18.46 763
18.48 815
18.5 772
18.52 771
18.54 742
18.56 798
18.58 784
18.6 750
18.62 754
18.64 792
18.66 784
18.68 801
18.7 779
18.72 803
18.74 823
18.76 797
18.78 770
18.8 778
18.82 798
18.84 820
18.86 858
18.88 815
18.9 837
18.92 841
18.94 802
18.96 848
18.98 856
19 814
19.02 765
19.04 825
19.06 803
19.08 807
19.1 809
19.12 835
19.14 883
19.16 906
19.18 882
19.2 843
19.22 834
19.24 874
19.26 866
19.28 862
19.3 884
19.32 865
19.34 891
19.36 826
19.38 872
19.4 908
19.42 989
19.44 998
19.46 1033
19.48 1090
19.5 1205
19.52 1306
19.54 1490
19.56 1736
19.58 2082
19.6 1936
19.62 1708
19.64 1640
19.66 1311
19.68 1133
19.7 1095
19.72 1133
19.74 1152
19.76 1227
19.78 1375
19.8 1594
19.82 1881
19.84 2364
19.86 2921
19.88 2723
19.9 2235
19.92 1907
19.94 1356
19.96 1102
19.98 956
20 980