File: xrd-UiO-67/standard/uio67.xye
3   0   4.4
3.02   0   4.4
3.04   0   4.4
3.06   0   4.4
3.08   0   4.4
3.1   0   4.4
3.12   0   4.4
3.14   0   4.4
3.16   0   4.4
3.18   0   4.4
3.2   0   4.4
3.22   0   4.4
3.24   0   4.4
3.26   0   4.4
3.28   0   4.4
3.3   0   4.4
3.32   0   4.4
3.34   0   4.4
3.36   0   4.4
3.38   0   4.4
3.4   0   4.4
3.42   0   4.4
3.44   0   4.4
3.46   0   4.4
3.48   0   4.4
3.5   0   4.4
3.52   0   4.4
3.54   0   4.4
3.56   0   4.4
3.58   0   4.4
3.6   0   4.4
3.62   0   4.4
3.64   0   4.4
3.66   0   4.4
3.68   0   4.4
3.7   0   4.4
3.72   0   4.4
3.74   0   4.4
3.76   0   4.4
3.78   0   4.4
3.8   0   4.4
3.82   0   4.4
3.84   0   4.4
3.86   0   4.4
3.88   0   4.4
3.9   0   4.4
3.92   0   4.4
3.94   0   4.4
3.96   0   4.4
3.98   0   4.4
4   0   4.4
4.02   0   4.4
4.04   0   4.4
4.06   0   4.4
4.08   0   4.4
4.1   0   4.4
4.12   0   4.4
4.14   0   4.4
4.16   0   4.4
4.18   0   4.4
4.2   0   4.4
4.22   0   4.4
4.24   9.84804   4.4
4.26   10.1211   4.4
4.28   10.4058   4.4
4.3   10.7026   4.4
4.32   11.0122   4.4
4.34   11.3355   4.4
4.36   11.6733   4.4
4.38   12.0263   4.4
4.4   12.3956   4.4
4.42   12.7822   4.4
4.44   13.1871   4.4
4.46   13.6116   4.4
4.48   14.0569   4.4
4.5   14.5244   4.4
4.52   15.0156   4.4
4.54   15.5321   4.4
4.56   16.0757   4.4
4.58   16.6484   4.4
4.6   17.2522   4.4
4.62   17.8894   4.4
4.64   18.5626   4.4
4.66   19.2744   4.4
4.68   20.028   4.47526
4.7   20.8266   4.56361
4.72   21.6739   4.65552
4.74   22.5739   4.7512
4.76   23.5311   4.85089
4.78   24.5505   4.95484
4.8   25.6374   5.06334
4.82   26.7982   5.17669
4.84   28.0395   5.29523
4.86   29.3689   5.41931
4.88   30.7951   5.54933
4.9   32.3276   5.68574
4.92   33.9773   5.82901
4.94   35.7564   5.97966
4.96   37.6787   6.1383
4.98   39.76   6.30556
5   42.0184   6.48216
5.02   44.4745   6.66892
5.04   47.1519   6.86673
5.06   50.0782   7.07659
5.08   53.2849   7.29965
5.1   56.809   7.53718
5.12   60.6938   7.79062
5.14   67.4804   8.21464
5.16   72.318   8.504
5.18   77.7014   8.81484
5.2   83.7163   9.14966
5.22   90.4655   9.51134
5.24   98.074   9.90323
5.26   106.694   10.3293
5.28   116.513   10.7941
5.3   127.765   11.3033
5.32   140.742   11.8635
5.34   155.815   12.4826
5.36   173.458   13.1703
5.38   194.289   13.9388
5.4   219.12   14.8027
5.42   249.038   15.7809
5.44   285.517   16.8972
5.46   330.602   18.1825
5.48   387.188   19.6771
5.5   459.472   21.4353
5.52   553.742   23.5317
5.54   679.91   26.0751
5.56   854.969   29.2398
5.58   1111.18   33.3344
5.6   1512.95   38.8967
5.62   2181.06   46.7018
5.64   3305.58   57.4941
5.66   5102.83   71.4341
5.68   7597.06   87.1611
5.7   9911.06   99.5543
5.72   10000   100
5.74   7761.15   88.0974
5.76   5238.62   72.3783
5.78   3395.98   58.2751
5.8   2237.03   47.2972
5.82   1547.86   39.3429
5.84   1134.69   33.6852
5.86   872.603   29.5398
5.88   694.479   26.353
5.9   566.692   23.8053
5.92   471.627   21.717
5.94   399.077   19.9769
5.96   342.598   18.5094
5.98   297.9   17.2598
6   262.037   16.1875
6.02   232.934   15.2622
6.04   209.101   14.4603
6.06   189.45   13.7641
6.08   173.175   13.1596
6.1   159.675   12.6363
6.12   148.495   12.1859
6.14   139.297   11.8024
6.16   131.828   11.4816
6.18   125.906   11.2208
6.2   121.412   11.0187
6.22   118.277   10.8755
6.24   116.488   10.7929
6.26   116.083   10.7742
6.28   117.166   10.8243
6.3   119.917   10.9507
6.32   124.615   11.1631
6.34   131.681   11.4752
6.36   141.733   11.9052
6.38   155.69   12.4776
6.4   174.941   13.2265
6.42   201.667   14.201
6.44   239.553   15.4775
6.46   295.475   17.1894
6.48   383.147   19.5741
6.5   528.928   22.9984
6.52   776.315   27.8624
6.54   1179.71   34.3468
6.56   1764.76   42.0091
6.58   2384.28   48.8291
6.6   2558.73   50.5839
6.62   2087.46   45.6887
6.64   1443.54   37.9939
6.66   945.446   30.7481
6.68   624.837   24.9967
6.7   432.573   20.7984
6.72   317.724   17.8248
6.74   245.611   15.672
6.76   197.025   14.0365
6.78   162.29   12.7393
6.8   136.424   11.6801
6.82   116.603   10.7983
6.84   101.069   10.0533
6.86   88.6608   9.41598
6.88   78.5849   8.86481
6.9   70.283   8.3835
6.92   63.3543   7.95954
6.94   57.5051   7.58321
6.96   52.5162   7.24681
6.98   48.2218   6.94419
7   44.4944   6.67041
7.02   41.2345   6.42141
7.04   38.364   6.19387
7.06   35.8205   5.98502
7.08   33.5538   5.79256
7.1   31.523   5.61454
7.12   29.6949   5.44931
7.14   28.0419   5.29546
7.16   26.5409   5.15179
7.18   25.1728   5.01725
7.2   14.3199   4.4
7.22   13.4239   4.4
7.24   12.6092   4.4
7.26   11.8664   4.4
7.28   11.1873   4.4
7.3   10.5647   4.4
7.32   9.99264   4.4
7.34   9.46573   4.4
7.36   8.97937   4.4
7.38   8.5295   4.4
7.4   8.11257   4.4
7.42   7.72544   4.4
7.44   7.36535   4.4
7.46   7.02983   4.4
7.48   6.7167   4.4
7.5   6.42402   4.4
7.52   6.15004   4.4
7.54   5.89321   4.4
7.56   5.65212   4.4
7.58   5.42552   4.4
7.6   5.21226   4.4
7.62   5.01133   4.4
7.64   4.82179   4.4
7.66   4.64279   4.4
7.68   4.47357   4.4
7.7   4.31343   4.4
7.72   4.16173   4.4
7.74   4.01789   4.4
7.76   3.88138   4.4
7.78   3.75171   4.4
7.8   3.62842   4.4
7.82   3.51111   4.4
7.84   3.39939   4.4
7.86   3.46942   4.4
7.88   3.37277   4.4
7.9   3.28094   4.4
7.92   3.19368   4.4
7.94   3.11073   4.4
7.96   3.03189   4.4
7.98   2.95694   4.4
8   2.88569   4.4
8.02   2.81797   4.4
8.04   2.75362   4.4
8.06   0.236288   4.4
8.08   0.243887   4.4
8.1   0.251857   4.4
8.12   0.260225   4.4
8.14   0.269016   4.4
8.16   0.27826   4.4
8.18   0.287989   4.4
8.2   0.298237   4.4
8.22   0.309041   4.4
8.24   0.320443   4.4
8.26   0.332487   4.4
8.28   0.345222   4.4
8.3   0.358703   4.4
8.32   0.372989   4.4
8.34   0.388144   4.4
8.36   0.404242   4.4
8.38   0.421361   4.4
8.4   0.43959   4.4
8.42   0.459026   4.4
8.44   0.47978   4.4
8.46   0.501972   4.4
8.48   0.525738   4.4
8.5   0.55123   4.4
8.52   0.578621   4.4
8.54   0.608101   4.4
8.56   0.639891   4.4
8.58   0.674236   4.4
8.6   0.711418   4.4
8.62   0.751757   4.4
8.64   0.79562   4.4
8.66   0.84343   4.4
8.68   0.895674   4.4
8.7   0.952916   4.4
8.72   1.01581   4.4
8.74   1.08513   4.4
8.76   1.16178   4.4
8.78   1.24682   4.4
8.8   1.34152   4.4
8.82   1.4474   4.4
8.84   1.56628   4.4
8.86   1.70036   4.4
8.88   1.85236   4.4
8.9   2.02559   4.4
8.92   2.22418   4.4
8.94   2.4533   4.4
8.96   2.71949   4.4
8.98   3.03116   4.4
9   3.3992   4.4
9.02   3.83792   4.4
9.04   4.36647   4.4
9.06   5.01082   4.4
9.08   5.80692   4.4
9.1   6.80559   4.4
9.12   8.08042   4.4
9.14   9.74137   4.4
9.16   11.9611   4.4
9.18   15.0339   4.4
9.2   19.5154   4.41762
9.22   26.514   5.14918
9.24   38.1245   6.1745
9.26   57.6891   7.59533
9.28   89.1231   9.44051
9.3   133.32   11.5464
9.32   176.044   13.2682
9.34   180.835   13.4475
9.36   142.15   11.9227
9.38   96.3926   9.81798
9.4   62.4693   7.90375
9.42   41.0053   6.40354
9.44   28.219   5.31216
9.46   20.5663   4.53501
9.48   15.9911   4.4
9.5   12.7199   4.4
9.52   10.3782   4.4
9.54   8.638   4.4
9.56   7.31015   4.4
9.58   6.27576   4.4
9.6   5.45583   4.4
9.62   4.7961   4.4
9.64   4.25835   4.4
9.66   3.81507   4.4
9.68   3.44608   4.4
9.7   3.13631   4.4
9.72   2.87438   4.4
9.74   2.6515   4.4
9.76   2.46088   4.4
9.78   2.29716   4.4
9.8   2.15609   4.4
9.82   2.03426   4.4
9.84   1.92894   4.4
9.86   1.8379   4.4
9.88   1.7593   4.4
9.9   1.69167   4.4
9.92   1.63377   4.4
9.94   1.58459   4.4
9.96   1.54329   4.4
9.98   2.52155   4.4
10   2.52249   4.4
10.02   2.53084   4.4
10.04   2.54632   4.4
10.06   2.56874   4.4
10.08   2.59798   4.4
10.1   2.63402   4.4
10.12   2.67689   4.4
10.14   2.72669   4.4
10.16   2.7836   4.4
10.18   2.84787   4.4
10.2   2.91984   4.4
10.22   2.99991   4.4
10.24   3.08858   4.4
10.26   3.18645   4.4
10.28   3.29422   4.4
10.3   3.41274   4.4
10.32   3.54298   4.4
10.34   3.68609   4.4
10.36   3.84344   4.4
10.38   4.0166   4.4
10.4   4.20747   4.4
10.42   4.41827   4.4
10.44   4.65164   4.4
10.46   4.91076   4.4
10.48   5.19944   4.4
10.5   5.52233   4.4
10.52   5.88509   4.4
10.54   6.29472   4.4
10.56   6.75993   4.4
10.58   7.29169   4.4
10.6   7.90402   4.4
10.62   8.61496   4.4
10.64   9.44822   4.4
10.66   10.4353   4.4
10.68   11.619   4.4
10.7   13.0584   4.4
10.72   14.8369   4.4
10.74   17.0759   4.4
10.76   19.9576   4.46739
10.78   23.7716   4.87561
10.8   29.0222   5.38722
10.82   36.5059   6.04201
10.84   48.5002   6.96421
10.86   68.3583   8.26791
10.88   101.404   10.0699
10.9   153.142   12.375
10.92   221.878   14.8956
10.94   277.584   16.6608
10.96   267.184   16.3458
10.98   203.536   14.2666
11   139.943   11.8298
11.02   95.6111   9.77809
11.04   68.7143   8.28941
11.06   53.4736   7.31256
11.08   45.0853   6.71456
11.1   40.6043   6.37215
11.12   38.5265   6.20697
11.14   38.1614   6.1775
11.16   39.225   6.26299
11.18   41.6583   6.45433
11.2   45.5696   6.75052
11.22   51.2373   7.15802
11.24   59.1596   7.69153
11.26   70.1724   8.37689
11.28   85.7247   9.25877
11.3   108.547   10.4186
11.32   144.109   12.0045
11.34   202.96   14.2464
11.36   302.613   17.3958
11.38   465.187   21.5682
11.4   701.868   26.4928
11.42   955.793   30.9159
11.44   1034.12   32.1578
11.46   847.468   29.1113
11.48   585.298   24.1929
11.5   381.018   19.5197
11.52   249.241   15.7874
11.54   170.238   13.0475
11.56   123.169   11.0981
11.58   93.745   9.6822
11.6   74.0216   8.60358
11.62   59.9932   7.74553
11.64   49.6012   7.04281
11.66   41.6818   6.45614
11.68   35.5123   5.95922
11.7   30.6164   5.53321
11.72   26.6682   5.16413
11.74   23.7003   4.8683
11.76   21.0338   4.58626
11.78   18.8026   4.4
11.8   16.9174   4.4
11.82   15.3106   4.4
11.84   13.9303   4.4
11.86   12.736   4.4
11.88   11.6962   4.4
11.9   10.7855   4.4
11.92   9.98371   4.4
11.94   9.27439   4.4
11.96   8.64413   4.4
11.98   8.0819   4.4
12   7.57856   4.4
12.02   7.12647   4.4
12.04   6.71923   4.4
12.06   6.35143   4.4
12.08   6.01849   4.4
12.1   5.7165   4.4
12.12   5.44213   4.4
12.14   5.19251   4.4
12.16   4.96517   4.4
12.18   4.75798   4.4
12.2   4.56911   4.4
12.22   4.39696   4.4
12.24   4.24016   4.4
12.26   4.0975   4.4
12.28   3.96796   4.4
12.3   3.85066   4.4
12.32   3.74483   4.4
12.34   3.64985   4.4
12.36   3.56519   4.4
12.38   3.4904   4.4
12.4   3.42517   4.4
12.42   3.10869   4.4
12.44   3.06882   4.4
12.46   3.03776   4.4
12.48   3.01553   4.4
12.5   3.00226   4.4
12.52   2.9982   4.4
12.54   3.00367   4.4
12.56   3.01914   4.4
12.58   3.0452   4.4
12.6   3.08261   4.4
12.62   3.1323   4.4
12.64   3.19544   4.4
12.66   3.27341   4.4
12.68   3.36795   4.4
12.7   3.48116   4.4
12.72   3.6156   4.4
12.74   3.77441   4.4
12.76   3.96147   4.4
12.78   4.1816   4.4
12.8   4.44078   4.4
12.82   4.74659   4.4
12.84   5.10861   4.4
12.86   5.53919   4.4
12.88   6.05434   4.4
12.9   5.67534   4.4
12.92   6.45682   4.4
12.94   7.40948   4.4
12.96   8.58939   4.4
12.98   10.0659   4.4
13   11.9506   4.4
13.02   14.4061   4.4
13.04   17.6874   4.4
13.06   22.2292   4.71478
13.08   28.8521   5.37142
13.1   39.1936   6.26048
13.12   56.348   7.50653
13.14   85.2553   9.23338
13.16   131.708   11.4764
13.18   197.051   14.0375
13.2   260.304   16.1339
13.22   267.556   16.3571
13.24   210.418   14.5058
13.26   142.714   11.9463
13.28   92.4929   9.61732
13.3   60.7105   7.79169
13.32   41.7764   6.46346
13.34   30.5402   5.52632
13.36   23.3808   4.83537
13.38   18.5306   4.4
13.4   15.0565   4.4
13.42   12.4724   4.4
13.44   10.4985   4.4
13.46   8.9585   4.4
13.48   7.73556   4.4
13.5   6.7493   4.4
13.52   5.94312   4.4
13.54   5.27627   4.4
13.56   4.71887   4.4
13.58   4.24857   4.4
13.6   3.84849   4.4
13.62   3.5056   4.4
13.64   3.2098   4.4
13.66   2.95311   4.4
13.68   2.72922   4.4
13.7   2.53302   4.4
13.72   2.36041   4.4
13.74   2.20804   4.4
13.76   2.07313   4.4
13.78   1.95342   4.4
13.8   1.84701   4.4
13.82   1.75233   4.4
13.84   1.66807   4.4
13.86   1.5931   4.4
13.88   1.52652   4.4
13.9   1.46755   4.4
13.92   1.41554   4.4
13.94   1.36998   4.4
13.96   1.33042   4.4
13.98   1.29655   4.4
14   1.26811   4.4
14.02   1.24493   4.4
14.04   1.22695   4.4
14.06   1.21418   4.4
14.08   1.20672   4.4
14.1   1.20481   4.4
14.12   1.20883   4.4
14.14   1.21934   4.4
14.16   1.23714   4.4
14.18   1.26341   4.4
14.2   1.29981   4.4
14.22   1.34883   4.4
14.24   1.41436   4.4
14.26   1.50303   4.4
14.28   1.62741   4.4
14.3   1.81172   4.4
14.32   2.09864   4.4
14.34   2.54913   4.4
14.36   3.21868   4.4
14.38   4.05623   4.4
14.4   4.6635   4.4
14.42   4.53407   4.4
14.44   3.97463   4.4
14.46   3.518   4.4
14.48   3.31366   4.4
14.5   3.3373   4.4
14.52   3.54303   4.4
14.54   3.90552   4.4
14.56   4.42883   4.4
14.58   5.14646   4.4
14.6   6.12516   4.4
14.62   7.48289   4.4
14.64   9.43887   4.4
14.66   12.4292   4.4
14.68   17.3096   4.4
14.7   25.302   5.03011
14.72   38.9273   6.23917
14.74   59.4018   7.70725
14.76   83.5188   9.13886
14.78   95.6753   9.78137
14.8   82.5584   9.08617
14.82   58.3834   7.6409
14.84   38.1891   6.17974
14.86   24.8269   4.98266
14.88   16.7448   4.4
14.9   11.9506   4.4
14.92   8.99465   4.4
14.94   7.04313   4.4
14.96   5.67122   4.4
14.98   4.66333   4.4
15   3.90024   4.4
15.02   3.30912   4.4
15.04   2.84246   4.4
15.06   2.468   4.4
15.08   2.16318   4.4
15.1   1.91193   4.4
15.12   1.7025   4.4
15.14   1.52621   4.4
15.16   1.37649   4.4
15.18   1.24833   4.4
15.2   1.13785   4.4
15.22   1.04198   4.4
15.24   0.958324   4.4
15.26   0.884942   4.4
15.28   0.820274   4.4
15.3   0.763048   4.4
15.32   0.712222   4.4
15.34   0.666935   4.4
15.36   0.626472   4.4
15.38   0.590237   4.4
15.4   0.557728   4.4
15.42   0.528526   4.4
15.44   0.502275   4.4
15.46   0.478677   4.4
15.48   0.457478   4.4
15.5   0.438466   4.4
15.52   0.421464   4.4
15.54   0.406324   4.4
15.56   0.392929   4.4
15.58   0.381183   4.4
15.6   0.371017   4.4
15.62   0.362382   4.4
15.64   0.355256   4.4
15.66   0.349637   4.4
15.68   0.34555   4.4
15.7   0.343048   4.4
15.72   0.456923   4.4
15.74   0.461066   4.4
15.76   0.467302   4.4
15.78   0.475865   4.4
15.8   0.487056   4.4
15.82   0.501271   4.4
15.84   0.519025   4.4
15.86   0.540994   4.4
15.88   0.565303   4.4
15.9   0.59876   4.4
15.92   0.640138   4.4
15.94   0.691672   4.4
15.96   0.756495   4.4
15.98   0.839111   4.4
16   0.946163   4.4
16.02   1.08787   4.4
16.04   1.28103   4.4
16.06   1.55624   4.4
16.08   1.97393   4.4
16.1   2.65225   4.4
16.12   3.79444   4.4
16.14   5.67467   4.4
16.16   8.49111   4.4
16.18   11.7855   4.4
16.2   13.405   4.4
16.22   11.5765   4.4
16.24   8.19002   4.4
16.26   5.45926   4.4
16.28   3.66107   4.4
16.3   2.58026   4.4
16.32   1.94554   4.4
16.34   1.56046   4.4
16.36   1.31237   4.4
16.38   1.14403   4.4
16.4   1.02642   4.4
16.42   0.943525   4.4
16.44   0.885653   4.4
16.46   0.846539   4.4
16.48   0.822014   4.4
16.5   0.809261   4.4
16.52   0.806374   4.4
16.54   0.812079   4.4
16.56   0.825569   4.4
16.58   0.846387   4.4
16.6   0.874358   4.4
16.62   0.909551   4.4
16.64   0.95226   4.4
16.66   1.003   4.4
16.68   1.0625   4.4
16.7   1.13177   4.4
16.72   1.21211   4.4
16.74   1.30516   4.4
16.76   1.41303   4.4
16.78   1.53837   4.4
16.8   1.68454   4.4
16.82   1.85587   4.4
16.84   2.05792   4.4
16.86   2.29795   4.4
16.88   2.58557   4.4
16.9   2.93362   4.4
16.92   3.35964   4.4
16.94   3.88796   4.4
16.96   4.5531   4.4
16.98   5.40525   4.4
17   6.51983   4.4
17.02   8.01633   4.4
17.04   10.1012   4.4
17.06   13.1689   4.4
17.08   18.0067   4.4
17.1   26.0771   5.10658
17.12   39.6422   6.29621
17.14   61.181   7.82183
17.16   90.5747   9.51708
17.18   116.401   10.7889
17.2   114.923   10.7202
17.22   87.8518   9.37293
17.24   58.9377   7.67709
17.26   38.1738   6.17849
17.28   25.1913   5.01909
17.3   17.4806   4.4
17.32   12.842   4.4
17.34   9.88177   4.4
17.36   7.85801   4.4
17.38   6.39904   4.4
17.4   5.30887   4.4
17.42   4.47303   4.4
17.44   3.81885   4.4
17.46   3.29778   4.4
17.48   2.87636   4.4
17.5   2.53091   4.4
17.52   2.24437   4.4
17.54   2.00416   4.4
17.56   1.80089   4.4
17.58   1.6274   4.4
17.6   1.47821   4.4
17.62   1.34902   4.4
17.64   1.23644   4.4
17.66   1.12515   4.4
17.68   1.03857   4.4
17.7   0.961963   4.4
17.72   0.893883   4.4
17.74   0.833143   4.4
17.76   0.778759   4.4
17.78   0.729908   4.4
17.8   0.685897   4.4
17.82   0.646144   4.4
17.84   0.610154   4.4
17.86   0.577506   4.4
17.88   0.547839   4.4
17.9   0.520847   4.4
17.92   0.496263   4.4
17.94   0.47386   4.4
17.96   0.453442   4.4
17.98   0.434842   4.4
18   0.417915   4.4
18.02   0.402539   4.4
18.04   0.388611   4.4
18.06   0.376045   4.4
18.08   0.364771   4.4
18.1   0.354736   4.4
18.12   0.345901   4.4
18.14   0.468505   4.4
18.16   0.465671   4.4
18.18   0.464169   4.4
18.2   0.464035   4.4
18.22   0.465324   4.4
18.24   0.468117   4.4
18.26   0.472525   4.4
18.28   0.478691   4.4
18.3   0.486803   4.4
18.32   0.497104   4.4
18.34   0.509905   4.4
18.36   0.52561   4.4
18.38   0.544743   4.4
18.4   0.56799   4.4
18.42   0.760802   4.4
18.44   0.799943   4.4
18.46   0.847206   4.4
18.48   0.904928   4.4
18.5   0.976434   4.4
18.52   1.06656   4.4
18.54   1.18262   4.4
18.56   1.33628   4.4
18.58   1.54797   4.4
18.6   1.85718   4.4
18.62   2.34237   4.4
18.64   3.14653   4.4
18.66   4.48308   4.4
18.68   6.45565   4.4
18.7   9.19713   4.4
18.72   11.337   4.4
18.74   10.7996   4.4
18.76   8.23304   4.4
18.78   5.72698   4.4
18.8   3.98817   4.4
18.82   2.9284   4.4
18.84   2.31665   4.4
18.86   1.96361   4.4
18.88   1.75315   4.4
18.9   1.62461   4.4
18.92   1.54778   4.4
18.94   1.50672   4.4
18.96   1.49226   4.4
18.98   1.49875   4.4
19   1.52268   4.4
19.02   1.56195   4.4
19.04   1.61541   4.4
19.06   1.68263   4.4
19.08   1.76377   4.4
19.1   1.85953   4.4
19.12   1.97106   4.4
19.14   2.10008   4.4
19.16   2.24885   4.4
19.18   2.42035   4.4
19.2   2.6184   4.4
19.22   2.84791   4.4
19.24   3.11521   4.4
19.26   3.42849   4.4
19.28   3.79852   4.4
19.3   4.2396   4.4
19.32   4.77104   4.4
19.34   5.41941   4.4
19.36   6.22198   4.4
19.38   7.2324   4.4
19.4   8.53025   4.4
19.42   10.2395   4.4
19.44   12.5695   4.4
19.46   15.9119   4.4
19.48   21.0454   4.58752
19.5   29.4452   5.42634
19.52   43.4858   6.59438
19.54   66.003   8.12422
19.56   97.8619   9.89252
19.58   129.577   11.3832
19.6   135.187   11.627
19.62   108.912   10.4361
19.64   76.6998   8.75784
19.66   53.0252   7.28184
19.68   38.7376   6.22395
19.7   31.3046   5.59505
19.72   28.4025   5.3294
19.74   28.8046   5.36699
19.76   32.5366   5.70409
19.78   40.9514   6.39933
19.8   56.7605   7.53396
19.82   83.4061   9.13269
19.84   122.089   11.0494
19.86   161.5   12.7083
19.88   169.069   13.0027
19.9   135.498   11.6404
19.92   93.1193   9.64983
19.94   61.0251   7.81185
19.96   40.4993   6.36391
19.98   28.1841   5.30887
20   20.7799   4.55849