File: xrd-UiO-67/standard/ZrFA.xye
3   0   4.4
3.02   0   4.4
3.04   0   4.4
3.06   0   4.4
3.08   0   4.4
3.1   0   4.4
3.12   0   4.4
3.14   0   4.4
3.16   0   4.4
3.18   0   4.4
3.2   0   4.4
3.22   0   4.4
3.24   0   4.4
3.26   0   4.4
3.28   0   4.4
3.3   0   4.4
3.32   0   4.4
3.34   0   4.4
3.36   0   4.4
3.38   0   4.4
3.4   0   4.4
3.42   0   4.4
3.44   0   4.4
3.46   0   4.4
3.48   0   4.4
3.5   0   4.4
3.52   0   4.4
3.54   0   4.4
3.56   0   4.4
3.58   0   4.4
3.6   0   4.4
3.62   0   4.4
3.64   0   4.4
3.66   0   4.4
3.68   0   4.4
3.7   0   4.4
3.72   0   4.4
3.74   0   4.4
3.76   0   4.4
3.78   0   4.4
3.8   0   4.4
3.82   0   4.4
3.84   0   4.4
3.86   0   4.4
3.88   0   4.4
3.9   0   4.4
3.92   0   4.4
3.94   0   4.4
3.96   0   4.4
3.98   0   4.4
4   0   4.4
4.02   0   4.4
4.04   0   4.4
4.06   0   4.4
4.08   0   4.4
4.1   0   4.4
4.12   0   4.4
4.14   0   4.4
4.16   0   4.4
4.18   0   4.4
4.2   0   4.4
4.22   0   4.4
4.24   0   4.4
4.26   0   4.4
4.28   0   4.4
4.3   0   4.4
4.32   0   4.4
4.34   0   4.4
4.36   0   4.4
4.38   0   4.4
4.4   0   4.4
4.42   0   4.4
4.44   0   4.4
4.46   0   4.4
4.48   0   4.4
4.5   0   4.4
4.52   0   4.4
4.54   0   4.4
4.56   0   4.4
4.58   0   4.4
4.6   0   4.4
4.62   0   4.4
4.64   0   4.4
4.66   0   4.4
4.68   0   4.4
4.7   0   4.4
4.72   0   4.4
4.74   0   4.4
4.76   0   4.4
4.78   0   4.4
4.8   0   4.4
4.82   0   4.4
4.84   0   4.4
4.86   0   4.4
4.88   0   4.4
4.9   0   4.4
4.92   0   4.4
4.94   0   4.4
4.96   0   4.4
4.98   0   4.4
5   0   4.4
5.02   0   4.4
5.04   0   4.4
5.06   0   4.4
5.08   0   4.4
5.1   0   4.4
5.12   0   4.4
5.14   0   4.4
5.16   0   4.4
5.18   0   4.4
5.2   0   4.4
5.22   0   4.4
5.24   0   4.4
5.26   0   4.4
5.28   0   4.4
5.3   0   4.4
5.32   0   4.4
5.34   0   4.4
5.36   0   4.4
5.38   0   4.4
5.4   0   4.4
5.42   0   4.4
5.44   0   4.4
5.46   0   4.4
5.48   0   4.4
5.5   0   4.4
5.52   0   4.4
5.54   0   4.4
5.56   0   4.4
5.58   0   4.4
5.6   0   4.4
5.62   0   4.4
5.64   0   4.4
5.66   0   4.4
5.68   0   4.4
5.7   0   4.4
5.72   0   4.4
5.74   0   4.4
5.76   0   4.4
5.78   0   4.4
5.8   0   4.4
5.82   0   4.4
5.84   0   4.4
5.86   0   4.4
5.88   0   4.4
5.9   0   4.4
5.92   0   4.4
5.94   0   4.4
5.96   0   4.4
5.98   0   4.4
6   0   4.4
6.02   0   4.4
6.04   0   4.4
6.06   0   4.4
6.08   0   4.4
6.1   0   4.4
6.12   0   4.4
6.14   0   4.4
6.16   0   4.4
6.18   0   4.4
6.2   0   4.4
6.22   0   4.4
6.24   0   4.4
6.26   0   4.4
6.28   0   4.4
6.3   0   4.4
6.32   0   4.4
6.34   0   4.4
6.36   0   4.4
6.38   0   4.4
6.4   0   4.4
6.42   0   4.4
6.44   0   4.4
6.46   0   4.4
6.48   0   4.4
6.5   0   4.4
6.52   0   4.4
6.54   0   4.4
6.56   0   4.4
6.58   0   4.4
6.6   0   4.4
6.62   0   4.4
6.64   0   4.4
6.66   0   4.4
6.68   0   4.4
6.7   0   4.4
6.72   0   4.4
6.74   0   4.4
6.76   0   4.4
6.78   0   4.4
6.8   0   4.4
6.82   0   4.4
6.84   0   4.4
6.86   0   4.4
6.88   0   4.4
6.9   0   4.4
6.92   0   4.4
6.94   0   4.4
6.96   0   4.4
6.98   0   4.4
7   0   4.4
7.02   0   4.4
7.04   0   4.4
7.06   0   4.4
7.08   0   4.4
7.1   0   4.4
7.12   0   4.4
7.14   0   4.4
7.16   0   4.4
7.18   0   4.4
7.2   0   4.4
7.22   0   4.4
7.24   0   4.4
7.26   0   4.4
7.28   0   4.4
7.3   0   4.4
7.32   0   4.4
7.34   0   4.4
7.36   0   4.4
7.38   0   4.4
7.4   8.77728   4.4
7.42   9.02558   4.4
7.44   9.28455   4.4
7.46   9.55483   4.4
7.48   9.83708   4.4
7.5   16.3768   4.4
7.52   16.8624   4.4
7.54   17.3699   4.4
7.56   17.9007   4.4
7.58   18.4562   4.4
7.6   19.038   4.4
7.62   19.6478   4.43259
7.64   20.2874   4.50415
7.66   20.9588   4.57807
7.68   21.664   4.65446
7.7   22.4055   4.73345
7.72   23.1858   4.81516
7.74   24.0076   4.89975
7.76   24.8739   4.98737
7.78   25.788   5.07819
7.8   26.7535   5.17238
7.82   27.7743   5.27014
7.84   28.8548   5.37166
7.86   29.9996   5.47719
7.88   31.214   5.58695
7.9   32.5037   5.7012
7.92   33.8752   5.82024
7.94   35.3355   5.94437
7.96   36.8924   6.07391
7.98   38.5546   6.20924
8   40.332   6.35075
8.02   42.2354   6.49887
8.04   44.2769   6.65409
8.06   46.4705   6.81692
8.08   48.8314   6.98795
8.1   51.3773   7.1678
8.12   54.128   7.35717
8.14   57.1062   7.55686
8.16   60.3375   7.76772
8.18   63.8518   7.99073
8.2   67.683   8.22697
8.22   71.8705   8.47765
8.24   76.4601   8.74414
8.26   81.5049   9.02801
8.28   87.0675   9.33099
8.3   93.2213   9.65512
8.32   100.053   10.0027
8.34   107.668   10.3763
8.36   116.189   10.7791
8.38   125.766   11.2146
8.4   145.646   12.0684
8.42   158.184   12.5771
8.44   172.489   13.1335
8.46   188.879   13.7433
8.48   207.808   14.4156
8.5   229.835   15.1603
8.52   255.683   15.9901
8.54   286.301   16.9204
8.56   322.951   17.9708
8.58   367.344   19.1662
8.6   421.843   20.5388
8.62   489.783   22.131
8.64   576   24
8.66   687.769   26.2254
8.68   836.715   28.926
8.7   1043.24   32.2992
8.72   1346.52   36.695
8.74   1822.8   42.6943
8.76   2605.91   51.0481
8.78   3885.92   62.3372
8.8   5833.75   76.379
8.82   8280.34   90.9964
8.84   10000   100
8.86   9629.19   98.1284
8.88   8345.39   91.3531
8.9   7772.12   88.1596
8.92   8023.84   89.5759
8.94   7898.45   88.8732
8.96   6456.31   80.3512
8.98   4581.67   67.6881
9   3106.68   55.7376
9.02   2133.31   46.1878
9.04   1530.49   39.1215
9.06   1157.63   34.0239
9.08   916.133   30.2677
9.1   749.505   27.3771
9.12   628.316   25.0662
9.14   536.991   23.1731
9.16   466.516   21.599
9.18   411.187   20.2777
9.2   367.179   19.1619
9.22   331.844   18.2166
9.24   303.3   17.4155
9.26   280.191   16.7389
9.28   261.523   16.1717
9.3   246.567   15.7025
9.32   234.786   15.3227
9.34   225.79   15.0263
9.36   219.376   14.8114
9.38   215.231   14.6707
9.4   213.33   14.6058
9.42   213.659   14.6171
9.44   216.286   14.7067
9.46   221.361   14.8782
9.48   229.137   15.1373
9.5   239.985   15.4915
9.52   254.434   15.951
9.54   273.218   16.5293
9.56   297.36   17.2441
9.58   328.284   18.1186
9.6   368.007   19.1835
9.62   419.43   20.48
9.64   486.827   22.0641
9.66   576.721   24.015
9.68   699.698   26.4518
9.7   874.638   29.5743
9.72   1138.47   33.7412
9.74   1564.24   39.5505
9.76   2281.99   47.7702
9.78   3477.85   58.9733
9.8   5318.64   72.929
9.82   7632.71   87.3654
9.84   9156.65   95.6904
9.86   8305.26   91.1332
9.88   6039.28   77.7128
9.9   3995.45   63.2096
9.92   2603.7   51.0265
9.94   1749.43   41.8262
9.96   1241.31   35.2322
9.98   930.528   30.5046
10   727.763   26.9771
10.02   586.591   24.2196
10.04   483.516   21.989
10.06   405.759   20.1435
10.08   345.649   18.5916
10.1   298.243   17.2697
10.12   260.208   16.131
10.14   229.232   15.1404
10.16   203.67   14.2713
10.18   182.326   13.5028
10.2   164.319   12.8187
10.22   148.984   12.2059
10.24   135.814   11.6539
10.26   124.418   11.1543
10.28   114.489   10.6999
10.3   97.1934   9.85867
10.32   89.7502   9.47366
10.34   83.1721   9.11987
10.36   77.3325   8.79389
10.38   72.128   8.49282
10.4   61.4323   7.83788
10.42   57.4193   7.57755
10.44   53.8217   7.33633
10.46   50.5919   7.1128
10.48   47.6911   6.90588
10.5   45.0881   6.71477
10.52   42.7586   6.53901
10.54   40.6855   6.37852
10.56   38.8588   6.23368
10.58   37.2771   6.1055
10.6   35.9502   5.99585
10.62   34.9032   5.90789
10.64   34.1861   5.84688
10.66   33.8942   5.82187
10.68   34.2182   5.84964
10.7   35.5498   5.96236
10.72   38.6443   6.21645
10.74   44.7333   6.6883
10.76   55.3098   7.43706
10.78   70.8986   8.42013
10.8   86.7477   9.31385
10.82   89.2128   9.44525
10.84   74.4912   8.63083
10.86   56.1493   7.49329
10.88   42.1464   6.49203
10.9   33.0061   5.74509
10.92   27.3204   5.22689
10.94   23.709   4.86919
10.96   21.2508   4.60986
10.98   19.4409   4.40918
11   18.0248   4.4
11.02   16.8699   4.4
11.04   15.8997   4.4
11.06   15.0659   4.4
11.08   14.3361   4.4
11.1   13.6878   4.4
11.12   13.1048   4.4
11.14   13.7235   4.4
11.16   13.271   4.4
11.18   12.8577   4.4
11.2   12.4783   4.4
11.22   12.1286   4.4
11.24   11.8055   4.4
11.26   11.5061   4.4
11.28   11.2282   4.4
11.3   10.9701   4.4
11.32   2.07519   4.4
11.34   2.08166   4.4
11.36   2.09495   4.4
11.38   2.11461   4.4
11.4   2.12659   4.4
11.42   2.15847   4.4
11.44   2.19599   4.4
11.46   2.23906   4.4
11.48   2.28766   4.4
11.5   2.34185   4.4
11.52   2.4017   4.4
11.54   2.46739   4.4
11.56   2.5391   4.4
11.58   2.6171   4.4
11.6   2.7017   4.4
11.62   2.79327   4.4
11.64   2.89224   4.4
11.66   2.9991   4.4
11.68   3.11443   4.4
11.7   3.23887   4.4
11.72   3.37316   4.4
11.74   3.51814   4.4
11.76   3.67476   4.4
11.78   3.84409   4.4
11.8   4.02736   4.4
11.82   4.22596   4.4
11.84   6.58025   4.4
11.86   6.87381   4.4
11.88   7.19069   4.4
11.9   7.53341   4.4
11.92   7.90488   4.4
11.94   8.30845   4.4
11.96   8.748   4.4
11.98   9.22803   4.4
12   9.75382   4.4
12.02   10.3316   4.4
12.04   10.9685   4.4
12.06   11.6734   4.4
12.08   12.4566   4.4
12.1   13.3304   4.4
12.12   14.3102   4.4
12.14   15.4141   4.4
12.16   16.6651   4.4
12.18   18.0913   4.4
12.2   19.7282   4.44164
12.22   21.6207   4.64981
12.24   23.8267   4.88126
12.26   26.4212   5.14016
12.28   29.5036   5.43172
12.3   33.1409   5.75682
12.32   37.6483   6.13582
12.34   43.2106   6.57348
12.36   50.1873   7.0843
12.38   59.1036   7.68789
12.4   70.7542   8.41155
12.42   86.4148   9.29595
12.44   108.332   10.4083
12.46   140.865   11.8687
12.48   192.672   13.8806
12.5   279.416   16.7157
12.52   424.19   20.5959
12.54   649.509   25.4855
12.56   942.038   30.6926
12.58   1159.32   34.0488
12.6   1084.38   32.93
12.62   803.509   28.3462
12.64   536.217   23.1564
12.66   351.431   18.7465
12.68   237.971   15.4263
12.7   171.089   13.0801
12.72   130.887   11.4406
12.74   105.272   10.2602
12.76   87.9474   9.37803
12.78   75.7599   8.70402
12.8   67.027   8.187
12.82   60.7589   7.7948
12.84   56.3325   7.5055
12.86   53.3434   7.30366
12.88   51.5294   7.1784
12.9   50.7258   7.1222
12.92   50.8402   7.13023
12.94   51.8381   7.19987
12.96   53.7362   7.3305
12.98   56.6028   7.52349
13   60.5635   7.78226
13.02   65.8144   8.11261
13.04   72.6448   8.52319
13.06   81.4739   9.02629
13.08   92.9103   9.639
13.1   107.85   10.3851
13.12   127.646   11.298
13.14   154.442   12.4275
13.16   191.924   13.8537
13.18   247.103   15.7195
13.2   333.979   18.2751
13.22   478.81   21.8817
13.24   722.899   26.8868
13.26   1113.21   33.3647
13.28   1654.76   40.6788
13.3   2156.35   46.4366
13.32   2173.86   46.6247
13.34   1686.7   41.0695
13.36   1138.84   33.7467
13.38   738.799   27.1809
13.4   487.144   22.0713
13.42   337.404   18.3686
13.44   247.523   15.7329
13.46   190.405   13.7987
13.48   151.498   12.3085
13.5   123.509   11.1135
13.52   102.616   10.13
13.54   86.6032   9.30608
13.56   74.0695   8.60636
13.58   64.0822   8.00514
13.6   55.9993   7.48326
13.62   49.3674   7.02619
13.64   43.8597   6.62267
13.66   39.2361   6.26387
13.68   35.3169   5.9428
13.7   31.9658   5.65383
13.72   29.0778   5.39239
13.74   26.5711   5.15472
13.76   24.3811   4.93772
13.78   22.4564   4.73882
13.8   20.7555   4.55582
13.82   19.2448   4.4
13.84   17.8968   4.4
13.86   16.6887   4.4
13.88   15.6017   4.4
13.9   14.62   4.4
13.92   13.7302   4.4
13.94   12.9212   4.4
13.96   12.1833   4.4
13.98   11.5084   4.4
14   10.8894   4.4
14.02   10.3202   4.4
14.04   9.79558   4.4
14.06   8.20791   4.4
14.08   7.78853   4.4
14.1   7.40045   4.4
14.12   7.04063   4.4
14.14   6.7064   4.4
14.16   6.39539   4.4
14.18   6.1055   4.4
14.2   5.83487   4.4
14.22   5.58182   4.4
14.24   5.34486   4.4
14.26   5.12267   4.4
14.28   4.91404   4.4
14.3   4.71789   4.4
14.32   4.53324   4.4
14.34   4.35922   4.4
14.36   4.19502   4.4
14.38   4.03992   4.4
14.4   3.89326   4.4
14.42   3.75444   4.4
14.44   3.62291   4.4
14.46   3.49817   4.4
14.48   3.41935   4.4
14.5   3.30794   4.4
14.52   3.20211   4.4
14.54   3.10149   4.4
14.56   3.00576   4.4
14.58   2.91462   4.4
14.6   2.8278   4.4
14.62   2.74505   4.4
14.64   2.66616   4.4
14.66   2.59085   4.4
14.68   2.51895   4.4
14.7   2.45027   4.4
14.72   2.38465   4.4
14.74   2.32192   4.4
14.76   2.26195   4.4
14.78   2.20458   4.4
14.8   0.0647317   4.4
14.82   0.0670422   4.4
14.84   0.0694786   4.4
14.86   0.0720501   4.4
14.88   0.074767   4.4
14.9   0.0776405   4.4
14.92   0.0806826   4.4
14.94   0.083907   4.4
14.96   0.0873285   4.4
14.98   0.0909633   4.4
15   0.0948297   4.4
15.02   0.0989477   4.4
15.04   0.10334   4.4
15.06   0.10803   4.4
15.08   0.113047   4.4
15.1   0.118455   4.4
15.12   0.124222   4.4
15.14   0.130421   4.4
15.16   0.137094   4.4
15.18   0.144293   4.4
15.2   0.152073   4.4
15.22   0.188933   4.4
15.24   0.198876   4.4
15.26   0.209656   4.4
15.28   0.221372   4.4
15.3   0.234137   4.4
15.32   0.248083   4.4
15.34   0.263364   4.4
15.36   0.280159   4.4
15.38   0.298678   4.4
15.4   0.319169   4.4
15.42   0.341928   4.4
15.44   0.367309   4.4
15.46   0.395737   4.4
15.48   0.427726   4.4
15.5   0.463906   4.4
15.52   0.505054   4.4
15.54   0.552131   4.4
15.56   0.606349   4.4
15.58   0.66924   4.4
15.6   0.742774   4.4
15.62   0.829508   4.4
15.64   0.932816   4.4
15.66   1.05721   4.4
15.68   1.20884   4.4
15.7   1.39625   4.4
15.72   1.63153   4.4
15.74   1.93231   4.4
15.76   2.3251   4.4
15.78   2.85202   4.4
15.8   3.58612   4.4
15.82   4.66754   4.4
15.84   6.37567   4.4
15.86   9.22669   4.4
15.88   14.0106   4.4
15.9   21.5729   4.64466
15.92   31.7848   5.6378
15.94   40.4567   6.36056
15.96   39.4542   6.28126
15.98   29.9458   5.47228
16   20.078   4.48084
16.02   13.057   4.4
16.04   8.69257   4.4
16.06   6.11164   4.4
16.08   4.56525   4.4
16.1   3.57815   4.4
16.12   2.89832   4.4
16.14   2.40771   4.4
16.16   2.04568   4.4
16.18   2.02012   4.4
16.2   1.8219   4.4
16.22   1.67322   4.4
16.24   1.56272   4.4
16.26   1.48274   4.4
16.28   1.4795   4.4
16.3   1.44841   4.4
16.32   1.43755   4.4
16.34   1.44617   4.4
16.36   1.47463   4.4
16.38   1.52447   4.4
16.4   1.5986   4.4
16.42   1.70172   4.4
16.44   1.84105   4.4
16.46   2.12313   4.4
16.48   2.37628   4.4
16.5   2.72019   4.4
16.52   3.19996   4.4
16.54   3.89928   4.4
16.56   4.98214   4.4
16.58   6.75978   4.4
16.6   9.74653   4.4
16.62   14.5669   4.4
16.64   21.425   4.62872
16.66   28.2998   5.31976
16.68   29.5378   5.43487
16.7   23.7336   4.87171
16.72   16.517   4.4
16.74   11.0969   4.4
16.76   7.66159   4.4
16.78   5.62803   4.4
16.8   4.43091   4.4
16.82   3.69513   4.4
16.84   3.51723   4.4
16.86   3.24296   4.4
16.88   3.02906   4.4
16.9   2.88657   4.4
16.92   2.79685   4.4
16.94   2.74779   4.4
16.96   2.73135   4.4
16.98   2.74218   4.4
17   2.77677   4.4
17.02   2.83292   4.4
17.04   2.90941   4.4
17.06   3.00582   4.4
17.08   3.1224   4.4
17.1   3.26001   4.4
17.12   3.42008   4.4
17.14   3.60469   4.4
17.16   3.81661   4.4
17.18   4.05941   4.4
17.2   4.33762   4.4
17.22   4.65698   4.4
17.24   5.02474   4.4
17.26   5.45013   4.4
17.28   5.94493   4.4
17.3   6.52438   4.4
17.32   7.20839   4.4
17.34   8.02336   4.4
17.36   9.00486   4.4
17.38   10.2016   4.4
17.4   11.6818   4.4
17.42   13.5432   4.4
17.44   15.8915   4.4
17.46   19.0267   4.4
17.48   23.2782   4.82475
17.5   29.3244   5.4152
17.52   38.5052   6.20525
17.54   53.3938   7.30711
17.56   78.2654   8.84677
17.58   118.563   10.8887
17.6   177.241   13.3132
17.62   241.176   15.5298
17.64   264.42   16.261
17.66   225.105   15.0035
17.68   169.905   13.0348
17.7   132.459   11.5091
17.72   114.317   10.6919
17.74   101.549   10.0772
17.76   83.0706   9.11431
17.78   64.3905   8.02437
17.8   51.4793   7.17491
17.82   45.1293   6.71783
17.84   45.0673   6.71322
17.86   51.7674   7.19495
17.88   66.3988   8.14854
17.9   88.7153   9.41888
17.92   110.104   10.493
17.94   110.574   10.5154
17.96   88.5778   9.41158
17.98   63.893   7.99331
18   46.0571   6.78654
18.02   35.1788   5.93117
18.04   29.2158   5.40516
18.06   26.3322   5.13149
18.08   25.3947   5.03931
18.1   25.8842   5.08765
18.12   27.6877   5.26191
18.14   30.9826   5.5662
18.16   36.2539   6.02112
18.18   44.6684   6.68345
18.2   58.4992   7.64847
18.22   82.0606   9.05873
18.24   122.032   11.0468
18.26   185.682   13.6265
18.28   272.373   16.5037
18.3   348.432   18.6663
18.32   345.744   18.5942
18.34   266.332   16.3197
18.36   180.019   13.4171
18.38   117.52   10.8407
18.4   78.3106   8.84933
18.42   54.9578   7.41335
18.44   40.9197   6.39685
18.46   31.9288   5.65055
18.48   25.775   5.07691
18.5   21.3318   4.61864
18.52   18.0059   4.4
18.54   15.4515   4.4
18.56   13.4494   4.4
18.58   12.7068   4.4
18.6   11.4394   4.4
18.62   10.4066   4.4
18.64   9.55679   4.4
18.66   8.85212   4.4
18.68   8.26428   4.4
18.7   7.77179   4.4
18.72   7.35815   4.4
18.74   7.01052   4.4
18.76   6.71884   4.4
18.78   6.47516   4.4
18.8   6.32381   4.4
18.82   6.15982   4.4
18.84   6.02846   4.4
18.86   5.9265   4.4
18.88   5.85138   4.4
18.9   5.80108   4.4
18.92   5.77405   4.4
18.94   5.76915   4.4
18.96   5.78557   4.4
18.98   5.82283   4.4
19   5.88074   4.4
19.02   5.95939   4.4
19.04   6.05914   4.4
19.06   6.18063   4.4
19.08   6.32477   4.4
19.1   6.2501   4.4
19.12   6.45006   4.4
19.14   6.67712   4.4
19.16   6.93366   4.4
19.18   7.22251   4.4
19.2   7.49609   4.4
19.22   7.86186   4.4
19.24   8.2723   4.4
19.26   8.73329   4.4
19.28   9.25191   4.4
19.3   9.83675   4.4
19.32   10.4983   4.4
19.34   11.2493   4.4
19.36   12.1056   4.4
19.38   13.0871   4.4
19.4   14.2187   4.4
19.42   15.4391   4.4
19.44   16.9782   4.4
19.46   18.7944   4.4
19.48   20.9594   4.57815
19.5   23.571   4.855
19.52   26.7642   5.17341
19.54   30.7304   5.5435
19.56   35.7485   5.979
19.58   42.2415   6.49935
19.6   50.895   7.13407
19.62   62.935   7.93316
19.64   80.7519   8.9862
19.66   109.001   10.4404
19.68   155.742   12.4797
19.7   232.068   15.2338
19.72   346.754   18.6213
19.74   484.452   22.0103
19.76   564.035   23.7494
19.78   511.755   22.622
19.8   396.422   19.9103
19.82   294.272   17.1544
19.84   226.52   15.0506
19.86   193.739   13.919
19.88   186.81   13.6679
19.9   193.772   13.9202
19.92   212.947   14.5927
19.94   259.985   16.1241
19.96   355.13   18.8449
19.98   514.521   22.6831
20   725.806   26.9408