File: xrd-UiO-67/pxrddata/105-3.ASC
3 1050
3.02 958
3.04 854
3.06 811
3.08 721
3.1 687
3.12 688
3.14 670
3.16 612
3.18 640
3.2 609
3.22 550
3.24 619
3.26 558
3.28 550
3.3 573
3.32 583
3.34 576
3.36 542
3.38 574
3.4 556
3.42 531
3.44 502
3.46 522
3.48 533
3.5 521
3.52 541
3.54 515
3.56 506
3.58 541
3.6 528
3.62 502
3.64 515
3.66 511
3.68 478
3.7 529
3.72 536
3.74 459
3.76 508
3.78 467
3.8 463
3.82 423
3.84 468
3.86 472
3.88 475
3.9 510
3.92 444
3.94 489
3.96 510
3.98 451
4 451
4.02 469
4.04 462
4.06 464
4.08 504
4.1 500
4.12 464
4.14 477
4.16 504
4.18 534
4.2 457
4.22 492
4.24 449
4.26 455
4.28 442
4.3 438
4.32 433
4.34 445
4.36 466
4.38 468
4.4 454
4.42 446
4.44 440
4.46 419
4.48 432
4.5 425
4.52 445
4.54 468
4.56 452
4.58 465
4.6 429
4.62 450
4.64 462
4.66 452
4.68 463
4.7 438
4.72 408
4.74 445
4.76 459
4.78 469
4.8 450
4.82 425
4.84 486
4.86 467
4.88 513
4.9 478
4.92 524
4.94 435
4.96 490
4.98 477
5 459
5.02 509
5.04 523
5.06 473
5.08 516
5.1 475
5.12 484
5.14 489
5.16 471
5.18 469
5.2 465
5.22 503
5.24 493
5.26 468
5.28 510
5.3 506
5.32 524
5.34 502
5.36 530
5.38 525
5.4 527
5.42 547
5.44 525
5.46 558
5.48 552
5.5 593
5.52 622
5.54 622
5.56 590
5.58 561
5.6 572
5.62 592
5.64 594
5.66 606
5.68 546
5.7 610
5.72 624
5.74 665
5.76 686
5.78 684
5.8 727
5.82 771
5.84 821
5.86 858
5.88 890
5.9 937
5.92 729
5.94 629
5.96 541
5.98 477
6 489
6.02 482
6.04 485
6.06 462
6.08 451
6.1 423
6.12 427
6.14 488
6.16 458
6.18 451
6.2 406
6.22 450
6.24 438
6.26 444
6.28 437
6.3 401
6.32 444
6.34 403
6.36 447
6.38 425
6.4 390
6.42 460
6.44 426
6.46 440
6.48 397
6.5 406
6.52 425
6.54 383
6.56 396
6.58 424
6.6 407
6.62 426
6.64 473
6.66 466
6.68 456
6.7 443
6.72 454
6.74 430
6.76 495
6.78 445
6.8 461
6.82 465
6.84 450
6.86 455
6.88 422
6.9 428
6.92 417
6.94 430
6.96 383
6.98 419
7 386
7.02 408
7.04 392
7.06 392
7.08 398
7.1 405
7.12 432
7.14 407
7.16 389
7.18 427
7.2 399
7.22 360
7.24 391
7.26 393
7.28 436
7.3 422
7.32 412
7.34 418
7.36 395
7.38 386
7.4 412
7.42 402
7.44 378
7.46 386
7.48 407
7.5 408
7.52 418
7.54 386
7.56 401
7.58 410
7.6 383
7.62 399
7.64 405
7.66 444
7.68 403
7.7 427
7.72 397
7.74 408
7.76 403
7.78 400
7.8 397
7.82 381
7.84 400
7.86 387
7.88 387
7.9 429
7.92 404
7.94 421
7.96 408
7.98 377
8 393
8.02 372
8.04 360
8.06 416
8.08 400
8.1 389
8.12 406
8.14 423
8.16 412
8.18 394
8.2 410
8.22 431
8.24 427
8.26 408
8.28 427
8.3 401
8.32 440
8.34 368
8.36 421
8.38 416
8.4 396
8.42 390
8.44 400
8.46 392
8.48 393
8.5 390
8.52 388
8.54 425
8.56 393
8.58 423
8.6 378
8.62 388
8.64 431
8.66 387
8.68 404
8.7 431
8.72 405
8.74 400
8.76 376
8.78 387
8.8 432
8.82 403
8.84 388
8.86 400
8.88 425
8.9 375
8.92 404
8.94 393
8.96 430
8.98 432
9 412
9.02 434
9.04 414
9.06 446
9.08 422
9.1 424
9.12 436
9.14 405
9.16 408
9.18 458
9.2 436
9.22 435
9.24 425
9.26 486
9.28 447
9.3 425
9.32 468
9.34 480
9.36 481
9.38 505
9.4 500
9.42 536
9.44 550
9.46 542
9.48 519
9.5 481
9.52 418
9.54 402
9.56 424
9.58 424
9.6 396
9.62 426
9.64 427
9.66 407
9.68 430
9.7 402
9.72 389
9.74 439
9.76 384
9.78 411
9.8 440
9.82 425
9.84 403
9.86 416
9.88 417
9.9 412
9.92 445
9.94 450
9.96 392
9.98 415
10 394
10.02 406
10.04 388
10.06 367
10.08 406
10.1 437
10.12 425
10.14 419
10.16 416
10.18 430
10.2 418
10.22 485
10.24 464
10.26 486
10.28 422
10.3 431
10.32 480
10.34 433
10.36 452
10.38 413
10.4 416
10.42 433
10.44 401
10.46 403
10.48 458
10.5 402
10.52 421
10.54 427
10.56 413
10.58 419
10.6 403
10.62 459
10.64 439
10.66 381
10.68 445
10.7 408
10.72 443
10.74 423
10.76 443
10.78 423
10.8 447
10.82 428
10.84 453
10.86 423
10.88 457
10.9 488
10.92 489
10.94 432
10.96 458
10.98 486
11 486
11.02 514
11.04 479
11.06 498
11.08 497
11.1 514
11.12 469
11.14 426
11.16 422
11.18 424
11.2 406
11.22 401
11.24 413
11.26 444
11.28 418
11.3 440
11.32 443
11.34 415
11.36 467
11.38 464
11.4 453
11.42 438
11.44 440
11.46 461
11.48 433
11.5 417
11.52 437
11.54 426
11.56 491
11.58 510
11.6 499
11.62 460
11.64 477
11.66 454
11.68 450
11.7 427
11.72 422
11.74 451
11.76 456
11.78 432
11.8 435
11.82 424
11.84 422
11.86 442
11.88 423
11.9 442
11.92 414
11.94 397
11.96 458
11.98 426
12 462
12.02 452
12.04 444
12.06 441
12.08 474
12.1 437
12.12 436
12.14 426
12.16 420
12.18 454
12.2 453
12.22 428
12.24 394
12.26 436
12.28 459
12.3 426
12.32 455
12.34 425
12.36 423
12.38 443
12.4 418
12.42 422
12.44 441
12.46 454
12.48 441
12.5 421
12.52 421
12.54 454
12.56 433
12.58 409
12.6 421
12.62 434
12.64 419
12.66 468
12.68 432
12.7 422
12.72 457
12.74 478
12.76 431
12.78 463
12.8 452
12.82 451
12.84 422
12.86 421
12.88 418
12.9 435
12.92 445
12.94 489
12.96 467
12.98 433
13 444
13.02 431
13.04 433
13.06 451
13.08 479
13.1 484
13.12 484
13.14 479
13.16 461
13.18 467
13.2 450
13.22 460
13.24 430
13.26 450
13.28 446
13.3 480
13.32 434
13.34 454
13.36 466
13.38 464
13.4 463
13.42 457
13.44 453
13.46 412
13.48 490
13.5 510
13.52 451
13.54 439
13.56 452
13.58 452
13.6 488
13.62 489
13.64 442
13.66 440
13.68 466
13.7 485
13.72 448
13.74 516
13.76 480
13.78 513
13.8 481
13.82 481
13.84 469
13.86 480
13.88 449
13.9 469
13.92 457
13.94 529
13.96 486
13.98 506
14 480
14.02 447
14.04 458
14.06 463
14.08 469
14.1 446
14.12 481
14.14 479
14.16 486
14.18 483
14.2 492
14.22 475
14.24 480
14.26 502
14.28 515
14.3 510
14.32 529
14.34 487
14.36 467
14.38 464
14.4 538
14.42 505
14.44 472
14.46 525
14.48 472
14.5 494
14.52 542
14.54 488
14.56 514
14.58 482
14.6 518
14.62 501
14.64 538
14.66 512
14.68 497
14.7 519
14.72 496
14.74 510
14.76 522
14.78 540
14.8 546
14.82 533
14.84 521
14.86 527
14.88 488
14.9 533
14.92 480
14.94 524
14.96 540
14.98 526
15 523
15.02 524
15.04 561
15.06 532
15.08 493
15.1 519
15.12 525
15.14 504
15.16 555
15.18 552
15.2 571
15.22 529
15.24 569
15.26 550
15.28 518
15.3 537
15.32 549
15.34 589
15.36 547
15.38 516
15.4 558
15.42 554
15.44 501
15.46 524
15.48 574
15.5 542
15.52 597
15.54 573
15.56 551
15.58 559
15.6 553
15.62 557
15.64 568
15.66 526
15.68 558
15.7 589
15.72 575
15.74 537
15.76 555
15.78 533
15.8 571
15.82 611
15.84 608
15.86 571
15.88 610
15.9 601
15.92 528
15.94 587
15.96 645
15.98 614
16 562
16.02 601
16.04 623
16.06 615
16.08 583
16.1 587
16.12 573
16.14 604
16.16 593
16.18 618
16.2 630
16.22 598
16.24 596
16.26 630
16.28 608
16.3 593
16.32 605
16.34 568
16.36 663
16.38 604
16.4 653
16.42 648
16.44 646
16.46 609
16.48 619
16.5 630
16.52 612
16.54 659
16.56 639
16.58 631
16.6 661
16.62 640
16.64 636
16.66 663
16.68 673
16.7 671
16.72 571
16.74 639
16.76 667
16.78 669
16.8 647
16.82 676
16.84 641
16.86 677
16.88 686
16.9 644
16.92 691
16.94 691
16.96 665
16.98 680
17 745
17.02 728
17.04 689
17.06 728
17.08 766
17.1 767
17.12 737
17.14 674
17.16 726
17.18 718
17.2 762
17.22 724
17.24 702
17.26 744
17.28 721
17.3 765
17.32 740
17.34 719
17.36 737
17.38 780
17.4 800
17.42 760
17.44 734
17.46 713
17.48 746
17.5 745
17.52 768
17.54 712
17.56 760
17.58 714
17.6 749
17.62 784
17.64 786
17.66 774
17.68 764
17.7 746
17.72 762
17.74 767
17.76 772
17.78 775
17.8 815
17.82 825
17.84 740
17.86 829
17.88 798
17.9 806
17.92 790
17.94 821
17.96 844
17.98 775
18 820
18.02 847
18.04 830
18.06 843
18.08 842
18.1 809
18.12 809
18.14 807
18.16 845
18.18 830
18.2 818
18.22 783
18.24 843
18.26 862
18.28 903
18.3 818
18.32 891
18.34 882
18.36 858
18.38 845
18.4 809
18.42 880
18.44 866
18.46 904
18.48 766
18.5 885
18.52 836
18.54 840
18.56 877
18.58 879
18.6 913
18.62 918
18.64 870
18.66 869
18.68 857
18.7 918
18.72 902
18.74 920
18.76 877
18.78 929
18.8 903
18.82 953
18.84 856
18.86 934
18.88 939
18.9 935
18.92 965
18.94 945
18.96 959
18.98 969
19 895
19.02 987
19.04 970
19.06 940
19.08 976
19.1 931
19.12 1041
19.14 1092
19.16 1007
19.18 966
19.2 981
19.22 998
19.24 1005
19.26 997
19.28 1052
19.3 1027
19.32 1021
19.34 1031
19.36 958
19.38 1000
19.4 980
19.42 1005
19.44 1017
19.46 1046
19.48 1036
19.5 1041
19.52 1046
19.54 1072
19.56 1091
19.58 1067
19.6 1058
19.62 1110
19.64 1039
19.66 1066
19.68 1098
19.7 1054
19.72 1033
19.74 1045
19.76 1051
19.78 1069
19.8 1081
19.82 993
19.84 1059
19.86 1070
19.88 1082
19.9 1103
19.92 1057
19.94 1147
19.96 1132
19.98 1117
20 1137