File: xrd-UiO-67/pxrddata/106-4.ASC
3 1865
3.02 1769
3.04 1645
3.06 1570
3.08 1418
3.1 1333
3.12 1224
3.14 1252
3.16 1108
3.18 1167
3.2 1072
3.22 1056
3.24 1062
3.26 1064
3.28 1010
3.3 979
3.32 956
3.34 960
3.36 941
3.38 961
3.4 921
3.42 937
3.44 920
3.46 829
3.48 850
3.5 848
3.52 818
3.54 813
3.56 820
3.58 795
3.6 807
3.62 796
3.64 798
3.66 782
3.68 804
3.7 798
3.72 724
3.74 770
3.76 768
3.78 764
3.8 719
3.82 738
3.84 744
3.86 664
3.88 693
3.9 708
3.92 662
3.94 711
3.96 760
3.98 670
4 678
4.02 648
4.04 629
4.06 676
4.08 623
4.1 645
4.12 601
4.14 630
4.16 645
4.18 638
4.2 682
4.22 581
4.24 600
4.26 630
4.28 598
4.3 618
4.32 632
4.34 606
4.36 618
4.38 623
4.4 617
4.42 583
4.44 603
4.46 615
4.48 542
4.5 580
4.52 569
4.54 601
4.56 565
4.58 578
4.6 573
4.62 568
4.64 550
4.66 531
4.68 547
4.7 557
4.72 543
4.74 597
4.76 559
4.78 532
4.8 550
4.82 532
4.84 546
4.86 572
4.88 592
4.9 546
4.92 590
4.94 569
4.96 559
4.98 522
5 565
5.02 530
5.04 562
5.06 506
5.08 544
5.1 533
5.12 549
5.14 551
5.16 597
5.18 588
5.2 559
5.22 590
5.24 529
5.26 544
5.28 539
5.3 546
5.32 532
5.34 545
5.36 543
5.38 520
5.4 543
5.42 542
5.44 545
5.46 500
5.48 566
5.5 499
5.52 518
5.54 517
5.56 525
5.58 549
5.6 557
5.62 544
5.64 591
5.66 595
5.68 570
5.7 550
5.72 557
5.74 542
5.76 506
5.78 538
5.8 545
5.82 553
5.84 553
5.86 542
5.88 571
5.9 512
5.92 538
5.94 520
5.96 521
5.98 553
6 504
6.02 550
6.04 502
6.06 477
6.08 495
6.1 539
6.12 531
6.14 507
6.16 554
6.18 550
6.2 539
6.22 501
6.24 539
6.26 517
6.28 493
6.3 520
6.32 514
6.34 503
6.36 518
6.38 509
6.4 577
6.42 539
6.44 531
6.46 525
6.48 538
6.5 523
6.52 488
6.54 511
6.56 504
6.58 530
6.6 538
6.62 510
6.64 514
6.66 514
6.68 534
6.7 538
6.72 528
6.74 513
6.76 507
6.78 545
6.8 525
6.82 521
6.84 554
6.86 524
6.88 533
6.9 519
6.92 518
6.94 516
6.96 528
6.98 547
7 511
7.02 516
7.04 495
7.06 541
7.08 515
7.1 518
7.12 516
7.14 535
7.16 483
7.18 532
7.2 506
7.22 580
7.24 510
7.26 502
7.28 521
7.3 481
7.32 513
7.34 508
7.36 515
7.38 510
7.4 539
7.42 508
7.44 588
7.46 481
7.48 513
7.5 562
7.52 549
7.54 536
7.56 504
7.58 522
7.6 542
7.62 569
7.64 530
7.66 535
7.68 532
7.7 551
7.72 539
7.74 527
7.76 510
7.78 522
7.8 499
7.82 549
7.84 520
7.86 492
7.88 506
7.9 515
7.92 509
7.94 606
7.96 515
7.98 547
8 530
8.02 509
8.04 534
8.06 520
8.08 524
8.1 521
8.12 519
8.14 500
8.16 524
8.18 510
8.2 558
8.22 487
8.24 481
8.26 523
8.28 531
8.3 541
8.32 524
8.34 488
8.36 507
8.38 481
8.4 491
8.42 466
8.44 523
8.46 528
8.48 516
8.5 524
8.52 519
8.54 526
8.56 545
8.58 536
8.6 494
8.62 583
8.64 492
8.66 509
8.68 500
8.7 485
8.72 497
8.74 510
8.76 523
8.78 482
8.8 537
8.82 523
8.84 509
8.86 526
8.88 482
8.9 508
8.92 505
8.94 532
8.96 520
8.98 498
9 512
9.02 513
9.04 554
9.06 504
9.08 525
9.1 551
9.12 514
9.14 517
9.16 558
9.18 499
9.2 477
9.22 501
9.24 482
9.26 495
9.28 511
9.3 478
9.32 518
9.34 545
9.36 503
9.38 459
9.4 472
9.42 518
9.44 503
9.46 494
9.48 483
9.5 478
9.52 511
9.54 508
9.56 513
9.58 493
9.6 501
9.62 487
9.64 499
9.66 506
9.68 485
9.7 485
9.72 491
9.74 504
9.76 500
9.78 518
9.8 514
9.82 472
9.84 474
9.86 462
9.88 475
9.9 503
9.92 541
9.94 494
9.96 457
9.98 540
10 502
10.02 501
10.04 487
10.06 488
10.08 460
10.1 447
10.12 494
10.14 490
10.16 495
10.18 515
10.2 463
10.22 475
10.24 498
10.26 462
10.28 490
10.3 465
10.32 497
10.34 484
10.36 482
10.38 477
10.4 479
10.42 491
10.44 494
10.46 455
10.48 494
10.5 522
10.52 484
10.54 518
10.56 493
10.58 474
10.6 494
10.62 504
10.64 514
10.66 452
10.68 486
10.7 438
10.72 473
10.74 448
10.76 461
10.78 435
10.8 488
10.82 460
10.84 458
10.86 446
10.88 467
10.9 460
10.92 462
10.94 479
10.96 464
10.98 511
11 468
11.02 457
11.04 499
11.06 477
11.08 449
11.1 511
11.12 460
11.14 489
11.16 495
11.18 443
11.2 443
11.22 486
11.24 494
11.26 494
11.28 496
11.3 482
11.32 473
11.34 485
11.36 472
11.38 469
11.4 470
11.42 485
11.44 483
11.46 487
11.48 498
11.5 464
11.52 509
11.54 496
11.56 454
11.58 502
11.6 518
11.62 453
11.64 457
11.66 479
11.68 505
11.7 480
11.72 473
11.74 483
11.76 502
11.78 455
11.8 464
11.82 472
11.84 467
11.86 468
11.88 500
11.9 495
11.92 500
11.94 508
11.96 464
11.98 475
12 497
12.02 512
12.04 467
12.06 463
12.08 461
12.1 501
12.12 504
12.14 472
12.16 460
12.18 456
12.2 510
12.22 499
12.24 473
12.26 514
12.28 499
12.3 526
12.32 502
12.34 446
12.36 451
12.38 492
12.4 491
12.42 491
12.44 468
12.46 476
12.48 460
12.5 439
12.52 477
12.54 484
12.56 508
12.58 509
12.6 466
12.62 524
12.64 461
12.66 467
12.68 436
12.7 499
12.72 538
12.74 527
12.76 510
12.78 483
12.8 435
12.82 490
12.84 530
12.86 481
12.88 495
12.9 519
12.92 469
12.94 509
12.96 494
12.98 524
13 500
13.02 477
13.04 501
13.06 514
13.08 527
13.1 527
13.12 481
13.14 487
13.16 500
13.18 530
13.2 486
13.22 480
13.24 543
13.26 512
13.28 528
13.3 495
13.32 533
13.34 484
13.36 518
13.38 508
13.4 507
13.42 499
13.44 531
13.46 494
13.48 506
13.5 503
13.52 507
13.54 532
13.56 474
13.58 507
13.6 520
13.62 523
13.64 498
13.66 534
13.68 452
13.7 514
13.72 553
13.74 528
13.76 472
13.78 496
13.8 532
13.82 496
13.84 534
13.86 505
13.88 529
13.9 532
13.92 471
13.94 493
13.96 547
13.98 515
14 520
14.02 503
14.04 521
14.06 539
14.08 532
14.1 513
14.12 531
14.14 547
14.16 548
14.18 529
14.2 523
14.22 544
14.24 548
14.26 525
14.28 530
14.3 496
14.32 516
14.34 532
14.36 516
14.38 557
14.4 522
14.42 512
14.44 533
14.46 554
14.48 566
14.5 519
14.52 493
14.54 520
14.56 575
14.58 577
14.6 595
14.62 490
14.64 590
14.66 529
14.68 549
14.7 555
14.72 517
14.74 593
14.76 578
14.78 568
14.8 525
14.82 523
14.84 544
14.86 540
14.88 597
14.9 565
14.92 554
14.94 618
14.96 530
14.98 581
15 582
15.02 561
15.04 562
15.06 585
15.08 524
15.1 556
15.12 563
15.14 579
15.16 574
15.18 580
15.2 562
15.22 569
15.24 584
15.26 584
15.28 550
15.3 546
15.32 608
15.34 580
15.36 571
15.38 611
15.4 596
15.42 574
15.44 560
15.46 595
15.48 577
15.5 589
15.52 579
15.54 590
15.56 584
15.58 580
15.6 581
15.62 588
15.64 582
15.66 649
15.68 637
15.7 658
15.72 610
15.74 606
15.76 612
15.78 607
15.8 606
15.82 604
15.84 588
15.86 607
15.88 634
15.9 621
15.92 616
15.94 583
15.96 607
15.98 638
16 637
16.02 613
16.04 638
16.06 627
16.08 626
16.1 684
16.12 602
16.14 641
16.16 614
16.18 596
16.2 646
16.22 638
16.24 603
16.26 635
16.28 630
16.3 652
16.32 649
16.34 621
16.36 656
16.38 657
16.4 666
16.42 631
16.44 639
16.46 634
16.48 630
16.5 688
16.52 657
16.54 677
16.56 691
16.58 670
16.6 659
16.62 682
16.64 713
16.66 640
16.68 660
16.7 722
16.72 701
16.74 687
16.76 726
16.78 699
16.8 705
16.82 729
16.84 768
16.86 763
16.88 741
16.9 778
16.92 758
16.94 815
16.96 822
16.98 896
17 947
17.02 897
17.04 918
17.06 850
17.08 858
17.1 823
17.12 786
17.14 794
17.16 738
17.18 730
17.2 724
17.22 772
17.24 768
17.26 741
17.28 722
17.3 710
17.32 738
17.34 765
17.36 734
17.38 792
17.4 729
17.42 715
17.44 724
17.46 748
17.48 740
17.5 740
17.52 746
17.54 788
17.56 742
17.58 767
17.6 813
17.62 770
17.64 782
17.66 793
17.68 761
17.7 768
17.72 730
17.74 776
17.76 813
17.78 767
17.8 790
17.82 777
17.84 776
17.86 752
17.88 802
17.9 775
17.92 860
17.94 820
17.96 865
17.98 819
18 847
18.02 783
18.04 854
18.06 839
18.08 852
18.1 823
18.12 875
18.14 796
18.16 816
18.18 782
18.2 810
18.22 877
18.24 861
18.26 862
18.28 840
18.3 851
18.32 855
18.34 870
18.36 881
18.38 898
18.4 861
18.42 878
18.44 834
18.46 892
18.48 889
18.5 934
18.52 900
18.54 885
18.56 815
18.58 877
18.6 874
18.62 886
18.64 893
18.66 875
18.68 902
18.7 863
18.72 845
18.74 902
18.76 886
18.78 970
18.8 897
18.82 889
18.84 909
18.86 921
18.88 947
18.9 884
18.92 936
18.94 995
18.96 936
18.98 933
19 930
19.02 934
19.04 960
19.06 966
19.08 929
19.1 914
19.12 907
19.14 937
19.16 930
19.18 978
19.2 946
19.22 912
19.24 960
19.26 985
19.28 952
19.3 920
19.32 1019
19.34 970
19.36 1003
19.38 988
19.4 1030
19.42 952
19.44 1026
19.46 1021
19.48 999
19.5 982
19.52 987
19.54 1024
19.56 952
19.58 978
19.6 976
19.62 946
19.64 1011
19.66 1057
19.68 1001
19.7 1078
19.72 1015
19.74 1064
19.76 1062
19.78 963
19.8 981
19.82 1022
19.84 1060
19.86 989
19.88 1022
19.9 1034
19.92 1053
19.94 1014
19.96 1008
19.98 1039
20 1023