File: xrd-UiO-67/pxrddata/106-1.ASC
3 1252
3.02 1199
3.04 1076
3.06 965
3.08 954
3.1 851
3.12 908
3.14 811
3.16 827
3.18 751
3.2 776
3.22 769
3.24 715
3.26 722
3.28 687
3.3 714
3.32 725
3.34 751
3.36 680
3.38 675
3.4 677
3.42 686
3.44 674
3.46 674
3.48 619
3.5 668
3.52 621
3.54 641
3.56 640
3.58 635
3.6 641
3.62 584
3.64 626
3.66 623
3.68 615
3.7 586
3.72 589
3.74 584
3.76 612
3.78 580
3.8 613
3.82 563
3.84 549
3.86 542
3.88 578
3.9 563
3.92 552
3.94 556
3.96 509
3.98 512
4 555
4.02 542
4.04 546
4.06 508
4.08 534
4.1 543
4.12 498
4.14 536
4.16 497
4.18 552
4.2 532
4.22 555
4.24 505
4.26 523
4.28 538
4.3 526
4.32 498
4.34 499
4.36 551
4.38 509
4.4 535
4.42 514
4.44 495
4.46 541
4.48 556
4.5 506
4.52 523
4.54 469
4.56 503
4.58 496
4.6 513
4.62 560
4.64 526
4.66 507
4.68 502
4.7 522
4.72 526
4.74 509
4.76 486
4.78 502
4.8 491
4.82 528
4.84 499
4.86 572
4.88 515
4.9 526
4.92 498
4.94 532
4.96 537
4.98 484
5 518
5.02 551
5.04 548
5.06 541
5.08 496
5.1 536
5.12 510
5.14 515
5.16 517
5.18 499
5.2 512
5.22 546
5.24 569
5.26 523
5.28 516
5.3 570
5.32 577
5.34 560
5.36 562
5.38 556
5.4 586
5.42 589
5.44 601
5.46 608
5.48 712
5.5 646
5.52 645
5.54 668
5.56 600
5.58 552
5.6 546
5.62 545
5.64 524
5.66 508
5.68 506
5.7 536
5.72 537
5.74 523
5.76 507
5.78 518
5.8 488
5.82 489
5.84 488
5.86 480
5.88 492
5.9 488
5.92 449
5.94 461
5.96 436
5.98 471
6 471
6.02 442
6.04 451
6.06 419
6.08 455
6.1 428
6.12 444
6.14 424
6.16 411
6.18 409
6.2 428
6.22 450
6.24 429
6.26 428
6.28 410
6.3 388
6.32 422
6.34 411
6.36 439
6.38 434
6.4 415
6.42 385
6.44 431
6.46 412
6.48 398
6.5 437
6.52 450
6.54 410
6.56 445
6.58 386
6.6 411
6.62 440
6.64 411
6.66 426
6.68 445
6.7 391
6.72 428
6.74 429
6.76 383
6.78 424
6.8 420
6.82 395
6.84 404
6.86 423
6.88 421
6.9 415
6.92 410
6.94 425
6.96 394
6.98 422
7 404
7.02 417
7.04 430
7.06 401
7.08 415
7.1 465
7.12 402
7.14 421
7.16 418
7.18 454
7.2 423
7.22 419
7.24 429
7.26 420
7.28 405
7.3 388
7.32 407
7.34 368
7.36 391
7.38 402
7.4 409
7.42 410
7.44 432
7.46 371
7.48 431
7.5 393
7.52 403
7.54 421
7.56 417
7.58 379
7.6 386
7.62 382
7.64 425
7.66 420
7.68 455
7.7 431
7.72 379
7.74 375
7.76 425
7.78 436
7.8 401
7.82 437
7.84 407
7.86 425
7.88 403
7.9 385
7.92 400
7.94 411
7.96 402
7.98 377
8 463
8.02 421
8.04 416
8.06 422
8.08 429
8.1 380
8.12 406
8.14 477
8.16 410
8.18 408
8.2 402
8.22 408
8.24 420
8.26 401
8.28 442
8.3 429
8.32 402
8.34 406
8.36 400
8.38 444
8.4 410
8.42 436
8.44 393
8.46 437
8.48 427
8.5 416
8.52 404
8.54 437
8.56 380
8.58 403
8.6 443
8.62 436
8.64 405
8.66 400
8.68 427
8.7 405
8.72 401
8.74 402
8.76 384
8.78 444
8.8 424
8.82 401
8.84 412
8.86 405
8.88 398
8.9 440
8.92 445
8.94 397
8.96 407
8.98 441
9 411
9.02 395
9.04 415
9.06 393
9.08 386
9.1 430
9.12 441
9.14 412
9.16 390
9.18 398
9.2 423
9.22 443
9.24 413
9.26 406
9.28 400
9.3 451
9.32 416
9.34 439
9.36 469
9.38 450
9.4 441
9.42 493
9.44 434
9.46 457
9.48 475
9.5 442
9.52 415
9.54 416
9.56 416
9.58 453
9.6 424
9.62 415
9.64 436
9.66 396
9.68 419
9.7 437
9.72 462
9.74 422
9.76 407
9.78 415
9.8 457
9.82 426
9.84 418
9.86 417
9.88 414
9.9 415
9.92 437
9.94 471
9.96 392
9.98 409
10 427
10.02 396
10.04 434
10.06 416
10.08 439
10.1 419
10.12 413
10.14 426
10.16 439
10.18 429
10.2 428
10.22 401
10.24 394
10.26 426
10.28 414
10.3 438
10.32 459
10.34 430
10.36 418
10.38 453
10.4 420
10.42 449
10.44 394
10.46 397
10.48 425
10.5 415
10.52 411
10.54 429
10.56 421
10.58 409
10.6 436
10.62 449
10.64 434
10.66 396
10.68 420
10.7 445
10.72 390
10.74 436
10.76 401
10.78 446
10.8 413
10.82 439
10.84 456
10.86 438
10.88 430
10.9 470
10.92 438
10.94 422
10.96 427
10.98 424
11 421
11.02 401
11.04 455
11.06 418
11.08 455
11.1 410
11.12 394
11.14 415
11.16 401
11.18 426
11.2 459
11.22 419
11.24 392
11.26 451
11.28 429
11.3 424
11.32 420
11.34 430
11.36 384
11.38 432
11.4 412
11.42 400
11.44 402
11.46 424
11.48 427
11.5 447
11.52 432
11.54 421
11.56 412
11.58 440
11.6 472
11.62 407
11.64 421
11.66 405
11.68 436
11.7 452
11.72 431
11.74 482
11.76 412
11.78 450
11.8 421
11.82 405
11.84 431
11.86 399
11.88 475
11.9 431
11.92 408
11.94 406
11.96 405
11.98 454
12 405
12.02 433
12.04 448
12.06 424
12.08 416
12.1 433
12.12 446
12.14 442
12.16 414
12.18 436
12.2 415
12.22 415
12.24 451
12.26 424
12.28 437
12.3 424
12.32 407
12.34 452
12.36 441
12.38 445
12.4 476
12.42 409
12.44 418
12.46 462
12.48 431
12.5 426
12.52 440
12.54 426
12.56 422
12.58 456
12.6 494
12.62 427
12.64 427
12.66 464
12.68 464
12.7 451
12.72 449
12.74 430
12.76 452
12.78 465
12.8 445
12.82 388
12.84 444
12.86 416
12.88 440
12.9 429
12.92 438
12.94 437
12.96 468
12.98 480
13 450
13.02 440
13.04 479
13.06 427
13.08 420
13.1 426
13.12 428
13.14 427
13.16 470
13.18 418
13.2 401
13.22 420
13.24 497
13.26 447
13.28 444
13.3 484
13.32 444
13.34 462
13.36 478
13.38 477
13.4 470
13.42 481
13.44 423
13.46 456
13.48 484
13.5 437
13.52 453
13.54 451
13.56 447
13.58 439
13.6 483
13.62 479
13.64 480
13.66 495
13.68 467
13.7 446
13.72 467
13.74 463
13.76 464
13.78 434
13.8 472
13.82 453
13.84 474
13.86 447
13.88 502
13.9 473
13.92 476
13.94 448
13.96 452
13.98 450
14 481
14.02 455
14.04 460
14.06 502
14.08 473
14.1 506
14.12 499
14.14 451
14.16 473
14.18 487
14.2 479
14.22 521
14.24 477
14.26 488
14.28 495
14.3 457
14.32 457
14.34 467
14.36 466
14.38 485
14.4 498
14.42 460
14.44 471
14.46 472
14.48 505
14.5 477
14.52 486
14.54 498
14.56 471
14.58 494
14.6 472
14.62 494
14.64 502
14.66 472
14.68 461
14.7 493
14.72 489
14.74 476
14.76 493
14.78 483
14.8 514
14.82 504
14.84 504
14.86 517
14.88 517
14.9 503
14.92 474
14.94 502
14.96 510
14.98 506
15 543
15.02 535
15.04 531
15.06 529
15.08 538
15.1 501
15.12 560
15.14 483
15.16 514
15.18 541
15.2 529
15.22 554
15.24 551
15.26 509
15.28 517
15.3 558
15.32 529
15.34 527
15.36 506
15.38 539
15.4 523
15.42 539
15.44 546
15.46 545
15.48 517
15.5 554
15.52 519
15.54 545
15.56 549
15.58 520
15.6 498
15.62 553
15.64 520
15.66 555
15.68 574
15.7 532
15.72 517
15.74 557
15.76 515
15.78 527
15.8 563
15.82 587
15.84 579
15.86 563
15.88 538
15.9 595
15.92 599
15.94 571
15.96 579
15.98 526
16 612
16.02 577
16.04 594
16.06 596
16.08 584
16.1 580
16.12 587
16.14 558
16.16 602
16.18 596
16.2 599
16.22 612
16.24 591
16.26 626
16.28 611
16.3 585
16.32 629
16.34 596
16.36 609
16.38 590
16.4 656
16.42 605
16.44 610
16.46 601
16.48 563
16.5 661
16.52 679
16.54 661
16.56 587
16.58 650
16.6 633
16.62 640
16.64 684
16.66 606
16.68 625
16.7 610
16.72 655
16.74 665
16.76 618
16.78 662
16.8 645
16.82 673
16.84 664
16.86 703
16.88 663
16.9 681
16.92 700
16.94 742
16.96 792
16.98 719
17 771
17.02 840
17.04 864
17.06 849
17.08 879
17.1 834
17.12 883
17.14 801
17.16 790
17.18 709
17.2 766
17.22 693
17.24 712
17.26 688
17.28 715
17.3 730
17.32 749
17.34 712
17.36 740
17.38 737
17.4 753
17.42 750
17.44 713
17.46 699
17.48 715
17.5 715
17.52 719
17.54 735
17.56 705
17.58 687
17.6 737
17.62 744
17.64 758
17.66 725
17.68 739
17.7 719
17.72 746
17.74 774
17.76 757
17.78 769
17.8 777
17.82 730
17.84 774
17.86 800
17.88 788
17.9 723
17.92 776
17.94 795
17.96 772
17.98 790
18 774
18.02 784
18.04 786
18.06 780
18.08 800
18.1 772
18.12 771
18.14 833
18.16 820
18.18 809
18.2 846
18.22 805
18.24 842
18.26 843
18.28 824
18.3 847
18.32 846
18.34 866
18.36 821
18.38 877
18.4 835
18.42 792
18.44 844
18.46 827
18.48 801
18.5 848
18.52 876
18.54 777
18.56 843
18.58 848
18.6 854
18.62 873
18.64 864
18.66 875
18.68 879
18.7 893
18.72 874
18.74 850
18.76 911
18.78 906
18.8 887
18.82 912
18.84 931
18.86 896
18.88 906
18.9 913
18.92 865
18.94 929
18.96 914
18.98 917
19 925
19.02 925
19.04 840
19.06 927
19.08 927
19.1 899
19.12 926
19.14 943
19.16 936
19.18 984
19.2 991
19.22 907
19.24 945
19.26 965
19.28 987
19.3 940
19.32 1016
19.34 922
19.36 933
19.38 1016
19.4 1005
19.42 964
19.44 988
19.46 950
19.48 1019
19.5 1049
19.52 952
19.54 1030
19.56 988
19.58 1023
19.6 989
19.62 1026
19.64 981
19.66 1023
19.68 970
19.7 1044
19.72 1008
19.74 1069
19.76 1043
19.78 1017
19.8 1010
19.82 1000
19.84 1087
19.86 1006
19.88 993
19.9 999
19.92 1006
19.94 1028
19.96 1062
19.98 1107
20 1046