File: xrd-UiO-67/pxrddata/106-5.ASC
3 1869
3.02 1683
3.04 1481
3.06 1379
3.08 1274
3.1 1221
3.12 1215
3.14 1112
3.16 1121
3.18 1067
3.2 993
3.22 1039
3.24 1022
3.26 982
3.28 928
3.3 1027
3.32 971
3.34 960
3.36 949
3.38 928
3.4 929
3.42 903
3.44 915
3.46 920
3.48 911
3.5 862
3.52 823
3.54 821
3.56 856
3.58 820
3.6 866
3.62 796
3.64 806
3.66 836
3.68 770
3.7 799
3.72 792
3.74 819
3.76 818
3.78 743
3.8 775
3.82 805
3.84 774
3.86 798
3.88 787
3.9 766
3.92 800
3.94 768
3.96 766
3.98 701
4 738
4.02 746
4.04 752
4.06 725
4.08 746
4.1 712
4.12 724
4.14 733
4.16 705
4.18 689
4.2 679
4.22 685
4.24 718
4.26 677
4.28 679
4.3 699
4.32 677
4.34 664
4.36 658
4.38 743
4.4 736
4.42 679
4.44 668
4.46 685
4.48 664
4.5 689
4.52 706
4.54 682
4.56 688
4.58 702
4.6 663
4.62 640
4.64 685
4.66 677
4.68 666
4.7 702
4.72 669
4.74 658
4.76 670
4.78 684
4.8 703
4.82 658
4.84 704
4.86 597
4.88 652
4.9 657
4.92 677
4.94 699
4.96 705
4.98 624
5 681
5.02 665
5.04 709
5.06 706
5.08 649
5.1 675
5.12 695
5.14 687
5.16 657
5.18 641
5.2 669
5.22 672
5.24 710
5.26 676
5.28 658
5.3 671
5.32 697
5.34 705
5.36 656
5.38 706
5.4 613
5.42 652
5.44 662
5.46 667
5.48 642
5.5 722
5.52 707
5.54 690
5.56 667
5.58 685
5.6 693
5.62 675
5.64 653
5.66 695
5.68 661
5.7 651
5.72 677
5.74 675
5.76 631
5.78 674
5.8 696
5.82 666
5.84 655
5.86 643
5.88 644
5.9 690
5.92 678
5.94 683
5.96 681
5.98 694
6 695
6.02 676
6.04 699
6.06 637
6.08 628
6.1 681
6.12 637
6.14 635
6.16 691
6.18 676
6.2 617
6.22 663
6.24 697
6.26 697
6.28 687
6.3 634
6.32 663
6.34 640
6.36 702
6.38 712
6.4 688
6.42 683
6.44 702
6.46 653
6.48 672
6.5 656
6.52 675
6.54 667
6.56 691
6.58 701
6.6 712
6.62 650
6.64 703
6.66 682
6.68 683
6.7 652
6.72 652
6.74 666
6.76 656
6.78 652
6.8 655
6.82 644
6.84 646
6.86 673
6.88 664
6.9 677
6.92 676
6.94 697
6.96 636
6.98 700
7 661
7.02 663
7.04 682
7.06 698
7.08 718
7.1 650
7.12 666
7.14 666
7.16 666
7.18 649
7.2 672
7.22 664
7.24 703
7.26 642
7.28 698
7.3 681
7.32 667
7.34 611
7.36 657
7.38 662
7.4 661
7.42 674
7.44 636
7.46 690
7.48 703
7.5 647
7.52 652
7.54 671
7.56 659
7.58 678
7.6 651
7.62 645
7.64 640
7.66 654
7.68 668
7.7 638
7.72 670
7.74 663
7.76 636
7.78 667
7.8 652
7.82 642
7.84 646
7.86 662
7.88 706
7.9 688
7.92 659
7.94 665
7.96 663
7.98 715
8 694
8.02 668
8.04 679
8.06 659
8.08 667
8.1 656
8.12 694
8.14 649
8.16 637
8.18 658
8.2 677
8.22 666
8.24 683
8.26 677
8.28 674
8.3 687
8.32 702
8.34 632
8.36 694
8.38 724
8.4 649
8.42 698
8.44 671
8.46 694
8.48 618
8.5 657
8.52 670
8.54 659
8.56 676
8.58 688
8.6 671
8.62 656
8.64 641
8.66 676
8.68 640
8.7 682
8.72 689
8.74 669
8.76 658
8.78 633
8.8 706
8.82 647
8.84 643
8.86 641
8.88 690
8.9 687
8.92 650
8.94 638
8.96 664
8.98 656
9 651
9.02 685
9.04 712
9.06 677
9.08 695
9.1 636
9.12 662
9.14 652
9.16 674
9.18 637
9.2 620
9.22 650
9.24 615
9.26 715
9.28 716
9.3 677
9.32 701
9.34 656
9.36 654
9.38 652
9.4 628
9.42 686
9.44 652
9.46 666
9.48 680
9.5 677
9.52 646
9.54 671
9.56 689
9.58 636
9.6 641
9.62 669
9.64 706
9.66 660
9.68 667
9.7 676
9.72 634
9.74 643
9.76 684
9.78 684
9.8 706
9.82 669
9.84 687
9.86 676
9.88 657
9.9 660
9.92 677
9.94 711
9.96 661
9.98 667
10 699
10.02 603
10.04 686
10.06 658
10.08 654
10.1 724
10.12 689
10.14 659
10.16 641
10.18 673
10.2 684
10.22 679
10.24 680
10.26 659
10.28 650
10.3 647
10.32 614
10.34 659
10.36 660
10.38 636
10.4 669
10.42 699
10.44 642
10.46 673
10.48 662
10.5 643
10.52 654
10.54 639
10.56 654
10.58 687
10.6 628
10.62 667
10.64 674
10.66 652
10.68 629
10.7 659
10.72 686
10.74 657
10.76 663
10.78 664
10.8 637
10.82 662
10.84 688
10.86 650
10.88 647
10.9 675
10.92 690
10.94 661
10.96 716
10.98 679
11 639
11.02 657
11.04 707
11.06 671
11.08 651
11.1 708
11.12 702
11.14 647
11.16 678
11.18 693
11.2 648
11.22 690
11.24 667
11.26 689
11.28 709
11.3 693
11.32 708
11.34 652
11.36 673
11.38 635
11.4 661
11.42 646
11.44 677
11.46 689
11.48 676
11.5 698
11.52 697
11.54 630
11.56 708
11.58 663
11.6 629
11.62 642
11.64 700
11.66 671
11.68 668
11.7 680
11.72 680
11.74 675
11.76 659
11.78 700
11.8 733
11.82 667
11.84 675
11.86 669
11.88 723
11.9 676
11.92 649
11.94 688
11.96 668
11.98 695
12 692
12.02 718
12.04 678
12.06 686
12.08 692
12.1 704
12.12 676
12.14 700
12.16 687
12.18 664
12.2 696
12.22 711
12.24 670
12.26 657
12.28 675
12.3 676
12.32 674
12.34 723
12.36 740
12.38 687
12.4 693
12.42 705
12.44 687
12.46 703
12.48 694
12.5 651
12.52 646
12.54 701
12.56 685
12.58 669
12.6 679
12.62 723
12.64 691
12.66 658
12.68 708
12.7 652
12.72 673
12.74 718
12.76 687
12.78 718
12.8 697
12.82 710
12.84 693
12.86 679
12.88 729
12.9 721
12.92 711
12.94 699
12.96 666
12.98 744
13 681
13.02 720
13.04 714
13.06 680
13.08 694
13.1 754
13.12 718
13.14 755
13.16 691
13.18 714
13.2 678
13.22 738
13.24 716
13.26 685
13.28 691
13.3 768
13.32 725
13.34 701
13.36 742
13.38 722
13.4 739
13.42 748
13.44 679
13.46 722
13.48 742
13.5 724
13.52 707
13.54 722
13.56 729
13.58 712
13.6 732
13.62 742
13.64 687
13.66 718
13.68 714
13.7 751
13.72 737
13.74 788
13.76 734
13.78 744
13.8 768
13.82 741
13.84 750
13.86 741
13.88 755
13.9 749
13.92 733
13.94 731
13.96 737
13.98 742
14 742
14.02 802
14.04 763
14.06 748
14.08 810
14.1 750
14.12 748
14.14 774
14.16 803
14.18 744
14.2 741
14.22 796
14.24 779
14.26 777
14.28 798
14.3 778
14.32 765
14.34 746
14.36 760
14.38 812
14.4 841
14.42 737
14.44 775
14.46 773
14.48 807
14.5 833
14.52 737
14.54 753
14.56 770
14.58 802
14.6 784
14.62 733
14.64 745
14.66 795
14.68 818
14.7 830
14.72 771
14.74 791
14.76 794
14.78 822
14.8 807
14.82 826
14.84 851
14.86 815
14.88 746
14.9 819
14.92 862
14.94 807
14.96 805
14.98 769
15 830
15.02 818
15.04 838
15.06 810
15.08 856
15.1 828
15.12 870
15.14 857
15.16 872
15.18 864
15.2 822
15.22 830
15.24 828
15.26 889
15.28 810
15.3 866
15.32 883
15.34 881
15.36 813
15.38 861
15.4 863
15.42 864
15.44 841
15.46 864
15.48 913
15.5 969
15.52 831
15.54 894
15.56 885
15.58 877
15.6 884
15.62 930
15.64 912
15.66 869
15.68 898
15.7 886
15.72 948
15.74 939
15.76 893
15.78 891
15.8 869
15.82 867
15.84 984
15.86 909
15.88 931
15.9 884
15.92 907
15.94 958
15.96 919
15.98 952
16 935
16.02 948
16.04 933
16.06 899
16.08 931
16.1 925
16.12 959
16.14 954
16.16 932
16.18 913
16.2 919
16.22 929
16.24 952
16.26 1011
16.28 971
16.3 1000
16.32 930
16.34 988
16.36 1001
16.38 952
16.4 994
16.42 949
16.44 969
16.46 978
16.48 958
16.5 955
16.52 970
16.54 988
16.56 955
16.58 1035
16.6 1006
16.62 1021
16.64 1020
16.66 1036
16.68 1031
16.7 982
16.72 1062
16.74 1056
16.76 1061
16.78 1046
16.8 1042
16.82 1106
16.84 1057
16.86 1066
16.88 1150
16.9 1118
16.92 1125
16.94 1154
16.96 1206
16.98 1239
17 1255
17.02 1310
17.04 1377
17.06 1366
17.08 1301
17.1 1269
17.12 1230
17.14 1240
17.16 1169
17.18 1133
17.2 1169
17.22 1132
17.24 1145
17.26 1115
17.28 1079
17.3 1081
17.32 1104
17.34 1129
17.36 1125
17.38 1147
17.4 1161
17.42 1105
17.44 1164
17.46 1170
17.48 1182
17.5 1202
17.52 1172
17.54 1181
17.56 1147
17.58 1151
17.6 1188
17.62 1219
17.64 1215
17.66 1173
17.68 1206
17.7 1142
17.72 1164
17.74 1156
17.76 1198
17.78 1213
17.8 1218
17.82 1225
17.84 1234
17.86 1228
17.88 1184
17.9 1223
17.92 1232
17.94 1270
17.96 1243
17.98 1263
18 1269
18.02 1255
18.04 1227
18.06 1232
18.08 1256
18.1 1292
18.12 1333
18.14 1223
18.16 1273
18.18 1248
18.2 1267
18.22 1350
18.24 1307
18.26 1266
18.28 1297
18.3 1270
18.32 1274
18.34 1332
18.36 1263
18.38 1329
18.4 1321
18.42 1364
18.44 1312
18.46 1359
18.48 1382
18.5 1380
18.52 1377
18.54 1356
18.56 1403
18.58 1409
18.6 1384
18.62 1321
18.64 1355
18.66 1321
18.68 1376
18.7 1402
18.72 1431
18.74 1389
18.76 1393
18.78 1389
18.8 1398
18.82 1420
18.84 1373
18.86 1403
18.88 1463
18.9 1423
18.92 1436
18.94 1423
18.96 1409
18.98 1442
19 1428
19.02 1464
19.04 1408
19.06 1432
19.08 1414
19.1 1462
19.12 1444
19.14 1512
19.16 1379
19.18 1520
19.2 1459
19.22 1546
19.24 1480
19.26 1494
19.28 1476
19.3 1527
19.32 1479
19.34 1470
19.36 1567
19.38 1462
19.4 1504
19.42 1470
19.44 1576
19.46 1546
19.48 1578
19.5 1587
19.52 1562
19.54 1551
19.56 1545
19.58 1581
19.6 1580
19.62 1555
19.64 1612
19.66 1550
19.68 1562
19.7 1586
19.72 1586
19.74 1599
19.76 1595
19.78 1544
19.8 1535
19.82 1604
19.84 1662
19.86 1616
19.88 1661
19.9 1590
19.92 1632
19.94 1675
19.96 1558
19.98 1614
20 1630