File: xrd-UiO-67/pxrddata/107-3.ASC
3 1754
3.02 1482
3.04 1362
3.06 1247
3.08 1196
3.1 1111
3.12 1046
3.14 996
3.16 906
3.18 960
3.2 859
3.22 922
3.24 905
3.26 849
3.28 859
3.3 835
3.32 820
3.34 796
3.36 826
3.38 821
3.4 742
3.42 802
3.44 829
3.46 827
3.48 762
3.5 780
3.52 746
3.54 675
3.56 715
3.58 715
3.6 737
3.62 717
3.64 747
3.66 669
3.68 705
3.7 700
3.72 708
3.74 711
3.76 674
3.78 668
3.8 680
3.82 703
3.84 733
3.86 677
3.88 677
3.9 663
3.92 677
3.94 646
3.96 660
3.98 609
4 714
4.02 679
4.04 660
4.06 724
4.08 649
4.1 613
4.12 633
4.14 603
4.16 653
4.18 612
4.2 612
4.22 603
4.24 614
4.26 628
4.28 626
4.3 589
4.32 606
4.34 594
4.36 607
4.38 592
4.4 590
4.42 601
4.44 589
4.46 585
4.48 548
4.5 585
4.52 572
4.54 593
4.56 603
4.58 565
4.6 577
4.62 587
4.64 581
4.66 571
4.68 601
4.7 596
4.72 599
4.74 612
4.76 579
4.78 607
4.8 614
4.82 639
4.84 603
4.86 672
4.88 623
4.9 625
4.92 645
4.94 656
4.96 679
4.98 659
5 711
5.02 671
5.04 651
5.06 688
5.08 716
5.1 732
5.12 762
5.14 818
5.16 791
5.18 791
5.2 790
5.22 802
5.24 820
5.26 850
5.28 933
5.3 925
5.32 921
5.34 1019
5.36 1039
5.38 999
5.4 1157
5.42 1119
5.44 1114
5.46 1230
5.48 1164
5.5 1221
5.52 1217
5.54 1263
5.56 1323
5.58 1244
5.6 1338
5.62 1347
5.64 1318
5.66 1361
5.68 1398
5.7 1428
5.72 1517
5.74 1488
5.76 1591
5.78 1557
5.8 1520
5.82 1608
5.84 1566
5.86 1478
5.88 1308
5.9 1207
5.92 1098
5.94 1055
5.96 970
5.98 918
6 788
6.02 778
6.04 767
6.06 768
6.08 751
6.1 703
6.12 744
6.14 698
6.16 703
6.18 668
6.2 709
6.22 623
6.24 652
6.26 645
6.28 610
6.3 663
6.32 644
6.34 669
6.36 634
6.38 626
6.4 638
6.42 657
6.44 646
6.46 700
6.48 629
6.5 642
6.52 671
6.54 662
6.56 691
6.58 673
6.6 696
6.62 677
6.64 712
6.66 694
6.68 670
6.7 677
6.72 650
6.74 672
6.76 604
6.78 605
6.8 589
6.82 560
6.84 522
6.86 592
6.88 551
6.9 516
6.92 572
6.94 530
6.96 522
6.98 543
7 511
7.02 538
7.04 511
7.06 495
7.08 544
7.1 517
7.12 517
7.14 550
7.16 513
7.18 482
7.2 533
7.22 468
7.24 498
7.26 494
7.28 499
7.3 482
7.32 510
7.34 470
7.36 499
7.38 517
7.4 511
7.42 493
7.44 518
7.46 503
7.48 469
7.5 494
7.52 497
7.54 466
7.56 498
7.58 516
7.6 498
7.62 471
7.64 514
7.66 511
7.68 509
7.7 479
7.72 526
7.74 477
7.76 490
7.78 500
7.8 522
7.82 502
7.84 471
7.86 498
7.88 444
7.9 498
7.92 550
7.94 502
7.96 456
7.98 493
8 499
8.02 496
8.04 535
8.06 568
8.08 501
8.1 492
8.12 520
8.14 533
8.16 502
8.18 486
8.2 491
8.22 520
8.24 508
8.26 535
8.28 520
8.3 522
8.32 520
8.34 533
8.36 487
8.38 497
8.4 514
8.42 496
8.44 512
8.46 485
8.48 511
8.5 477
8.52 466
8.54 491
8.56 507
8.58 511
8.6 508
8.62 510
8.64 522
8.66 553
8.68 537
8.7 526
8.72 562
8.74 538
8.76 544
8.78 495
8.8 530
8.82 547
8.84 552
8.86 497
8.88 534
8.9 514
8.92 504
8.94 550
8.96 534
8.98 554
9 572
9.02 612
9.04 569
9.06 592
9.08 629
9.1 638
9.12 612
9.14 630
9.16 671
9.18 635
9.2 660
9.22 649
9.24 720
9.26 663
9.28 727
9.3 747
9.32 828
9.34 884
9.36 858
9.38 890
9.4 911
9.42 902
9.44 832
9.46 806
9.48 735
9.5 705
9.52 667
9.54 667
9.56 660
9.58 604
9.6 599
9.62 604
9.64 588
9.66 556
9.68 569
9.7 578
9.72 600
9.74 598
9.76 580
9.78 525
9.8 563
9.82 613
9.84 548
9.86 512
9.88 525
9.9 575
9.92 549
9.94 547
9.96 544
9.98 573
10 555
10.02 581
10.04 585
10.06 545
10.08 614
10.1 556
10.12 559
10.14 596
10.16 601
10.18 606
10.2 590
10.22 592
10.24 604
10.26 562
10.28 590
10.3 579
10.32 570
10.34 565
10.36 554
10.38 586
10.4 512
10.42 596
10.44 540
10.46 551
10.48 536
10.5 524
10.52 593
10.54 582
10.56 587
10.58 601
10.6 543
10.62 567
10.64 573
10.66 584
10.68 627
10.7 615
10.72 620
10.74 658
10.76 632
10.78 707
10.8 671
10.82 663
10.84 663
10.86 721
10.88 772
10.9 778
10.92 753
10.94 707
10.96 842
10.98 788
11 798
11.02 804
11.04 771
11.06 659
11.08 708
11.1 663
11.12 636
11.14 606
11.16 619
11.18 606
11.2 623
11.22 607
11.24 543
11.26 588
11.28 602
11.3 628
11.32 611
11.34 600
11.36 597
11.38 616
11.4 570
11.42 611
11.44 621
11.46 603
11.48 623
11.5 599
11.52 620
11.54 620
11.56 605
11.58 604
11.6 589
11.62 617
11.64 589
11.66 579
11.68 538
11.7 588
11.72 560
11.74 583
11.76 544
11.78 517
11.8 537
11.82 552
11.84 572
11.86 516
11.88 554
11.9 529
11.92 538
11.94 561
11.96 560
11.98 548
12 517
12.02 544
12.04 553
12.06 544
12.08 528
12.1 550
12.12 552
12.14 554
12.16 556
12.18 531
12.2 526
12.22 570
12.24 576
12.26 558
12.28 546
12.3 563
12.32 526
12.34 586
12.36 550
12.38 562
12.4 520
12.42 534
12.44 563
12.46 553
12.48 553
12.5 506
12.52 517
12.54 535
12.56 525
12.58 478
12.6 553
12.62 568
12.64 528
12.66 491
12.68 546
12.7 564
12.72 496
12.74 521
12.76 537
12.78 553
12.8 514
12.82 519
12.84 537
12.86 553
12.88 513
12.9 565
12.92 529
12.94 544
12.96 532
12.98 518
13 518
13.02 562
13.04 574
13.06 524
13.08 529
13.1 572
13.12 565
13.14 563
13.16 545
13.18 536
13.2 589
13.22 552
13.24 536
13.26 549
13.28 563
13.3 587
13.32 577
13.34 550
13.36 562
13.38 538
13.4 511
13.42 564
13.44 607
13.46 535
13.48 567
13.5 538
13.52 552
13.54 556
13.56 552
13.58 579
13.6 562
13.62 571
13.64 568
13.66 593
13.68 606
13.7 568
13.72 593
13.74 557
13.76 543
13.78 559
13.8 570
13.82 583
13.84 578
13.86 555
13.88 565
13.9 600
13.92 599
13.94 593
13.96 645
13.98 571
14 622
14.02 606
14.04 603
14.06 622
14.08 576
14.1 569
14.12 569
14.14 596
14.16 645
14.18 615
14.2 646
14.22 570
14.24 605
14.26 596
14.28 621
14.3 629
14.32 598
14.34 613
14.36 594
14.38 665
14.4 658
14.42 667
14.44 631
14.46 636
14.48 665
14.5 652
14.52 667
14.54 642
14.56 582
14.58 629
14.6 660
14.62 696
14.64 659
14.66 631
14.68 603
14.7 653
14.72 644
14.74 607
14.76 638
14.78 633
14.8 613
14.82 679
14.84 641
14.86 655
14.88 640
14.9 639
14.92 633
14.94 662
14.96 664
14.98 638
15 652
15.02 668
15.04 609
15.06 661
15.08 647
15.1 630
15.12 652
15.14 632
15.16 661
15.18 640
15.2 648
15.22 665
15.24 641
15.26 642
15.28 668
15.3 667
15.32 662
15.34 670
15.36 642
15.38 690
15.4 672
15.42 686
15.44 667
15.46 657
15.48 698
15.5 657
15.52 654
15.54 643
15.56 664
15.58 653
15.6 695
15.62 628
15.64 689
15.66 695
15.68 713
15.7 679
15.72 667
15.74 704
15.76 643
15.78 719
15.8 668
15.82 719
15.84 745
15.86 680
15.88 716
15.9 709
15.92 701
15.94 699
15.96 696
15.98 654
16 703
16.02 655
16.04 745
16.06 737
16.08 703
16.1 737
16.12 721
16.14 741
16.16 700
16.18 728
16.2 718
16.22 752
16.24 769
16.26 781
16.28 748
16.3 704
16.32 725
16.34 770
16.36 743
16.38 762
16.4 746
16.42 789
16.44 767
16.46 753
16.48 762
16.5 742
16.52 839
16.54 749
16.56 727
16.58 758
16.6 790
16.62 769
16.64 775
16.66 771
16.68 751
16.7 757
16.72 779
16.74 735
16.76 745
16.78 784
16.8 832
16.82 805
16.84 797
16.86 758
16.88 750
16.9 791
16.92 831
16.94 823
16.96 738
16.98 824
17 830
17.02 819
17.04 816
17.06 808
17.08 787
17.1 795
17.12 865
17.14 901
17.16 812
17.18 862
17.2 801
17.22 821
17.24 826
17.26 866
17.28 807
17.3 827
17.32 839
17.34 893
17.36 823
17.38 837
17.4 863
17.42 896
17.44 909
17.46 816
17.48 917
17.5 844
17.52 872
17.54 873
17.56 862
17.58 898
17.6 908
17.62 884
17.64 907
17.66 860
17.68 929
17.7 888
17.72 943
17.74 856
17.76 914
17.78 901
17.8 852
17.82 893
17.84 896
17.86 902
17.88 898
17.9 957
17.92 926
17.94 958
17.96 985
17.98 943
18 899
18.02 983
18.04 967
18.06 959
18.08 969
18.1 936
18.12 971
18.14 984
18.16 907
18.18 959
18.2 1006
18.22 930
18.24 980
18.26 965
18.28 979
18.3 946
18.32 950
18.34 971
18.36 1000
18.38 959
18.4 931
18.42 1011
18.44 986
18.46 1043
18.48 1016
18.5 975
18.52 1027
18.54 986
18.56 968
18.58 1057
18.6 1011
18.62 998
18.64 1045
18.66 1026
18.68 1050
18.7 1075
18.72 1088
18.74 1075
18.76 1028
18.78 1094
18.8 994
18.82 1075
18.84 1085
18.86 1102
18.88 1086
18.9 1090
18.92 1015
18.94 1092
18.96 1137
18.98 1085
19 1079
19.02 1150
19.04 1079
19.06 1141
19.08 1154
19.1 1138
19.12 1106
19.14 1137
19.16 1105
19.18 1085
19.2 1103
19.22 1109
19.24 1192
19.26 1166
19.28 1147
19.3 1060
19.32 1121
19.34 1162
19.36 1177
19.38 1167
19.4 1216
19.42 1195
19.44 1249
19.46 1223
19.48 1176
19.5 1308
19.52 1332
19.54 1282
19.56 1276
19.58 1306
19.6 1291
19.62 1199
19.64 1269
19.66 1290
19.68 1320
19.7 1263
19.72 1232
19.74 1256
19.76 1212
19.78 1230
19.8 1228
19.82 1212
19.84 1256
19.86 1197
19.88 1247
19.9 1224
19.92 1296
19.94 1247
19.96 1189
19.98 1252
20 1187