File: xrd-UiO-67/pxrddata/107-8.ASC
3 2031
3.02 1805
3.04 1653
3.06 1584
3.08 1512
3.1 1445
3.12 1371
3.14 1373
3.16 1245
3.18 1229
3.2 1261
3.22 1213
3.24 1242
3.26 1195
3.28 1170
3.3 1203
3.32 1099
3.34 1123
3.36 1085
3.38 1171
3.4 1065
3.42 1046
3.44 1029
3.46 1018
3.48 993
3.5 1037
3.52 996
3.54 1020
3.56 938
3.58 961
3.6 941
3.62 945
3.64 931
3.66 946
3.68 1000
3.7 909
3.72 919
3.74 961
3.76 908
3.78 901
3.8 928
3.82 867
3.84 859
3.86 894
3.88 873
3.9 862
3.92 827
3.94 840
3.96 847
3.98 844
4 828
4.02 852
4.04 852
4.06 794
4.08 807
4.1 749
4.12 804
4.14 839
4.16 829
4.18 788
4.2 862
4.22 843
4.24 808
4.26 800
4.28 781
4.3 772
4.32 782
4.34 795
4.36 814
4.38 780
4.4 779
4.42 825
4.44 807
4.46 772
4.48 813
4.5 817
4.52 855
4.54 816
4.56 851
4.58 820
4.6 807
4.62 810
4.64 823
4.66 785
4.68 845
4.7 850
4.72 796
4.74 888
4.76 886
4.78 852
4.8 858
4.82 899
4.84 859
4.86 906
4.88 869
4.9 901
4.92 884
4.94 923
4.96 939
4.98 904
5 897
5.02 919
5.04 973
5.06 957
5.08 1003
5.1 956
5.12 976
5.14 960
5.16 1023
5.18 959
5.2 1010
5.22 1026
5.24 995
5.26 1077
5.28 1074
5.3 1069
5.32 1101
5.34 1054
5.36 1051
5.38 1046
5.4 1049
5.42 1061
5.44 1079
5.46 1045
5.48 1123
5.5 1013
5.52 1048
5.54 1086
5.56 1058
5.58 1010
5.6 1073
5.62 1018
5.64 995
5.66 998
5.68 1004
5.7 1059
5.72 985
5.74 974
5.76 953
5.78 898
5.8 948
5.82 956
5.84 944
5.86 883
5.88 826
5.9 865
5.92 770
5.94 812
5.96 783
5.98 793
6 758
6.02 730
6.04 769
6.06 758
6.08 711
6.1 725
6.12 730
6.14 677
6.16 672
6.18 739
6.2 711
6.22 696
6.24 659
6.26 633
6.28 651
6.3 645
6.32 641
6.34 625
6.36 706
6.38 617
6.4 636
6.42 652
6.44 673
6.46 646
6.48 611
6.5 589
6.52 615
6.54 603
6.56 599
6.58 601
6.6 600
6.62 612
6.64 587
6.66 579
6.68 556
6.7 567
6.72 577
6.74 601
6.76 569
6.78 598
6.8 600
6.82 590
6.84 546
6.86 589
6.88 536
6.9 497
6.92 547
6.94 600
6.96 561
6.98 562
7 551
7.02 550
7.04 574
7.06 544
7.08 538
7.1 553
7.12 568
7.14 502
7.16 562
7.18 561
7.2 529
7.22 551
7.24 504
7.26 585
7.28 573
7.3 553
7.32 592
7.34 544
7.36 531
7.38 520
7.4 540
7.42 530
7.44 534
7.46 520
7.48 536
7.5 558
7.52 553
7.54 525
7.56 487
7.58 511
7.6 494
7.62 551
7.64 530
7.66 484
7.68 532
7.7 559
7.72 563
7.74 547
7.76 525
7.78 547
7.8 515
7.82 561
7.84 508
7.86 571
7.88 504
7.9 538
7.92 547
7.94 507
7.96 552
7.98 509
8 490
8.02 542
8.04 506
8.06 548
8.08 561
8.1 541
8.12 511
8.14 532
8.16 512
8.18 552
8.2 536
8.22 543
8.24 525
8.26 542
8.28 501
8.3 578
8.32 497
8.34 539
8.36 524
8.38 532
8.4 530
8.42 574
8.44 547
8.46 522
8.48 551
8.5 546
8.52 551
8.54 498
8.56 544
8.58 536
8.6 515
8.62 529
8.64 539
8.66 486
8.68 539
8.7 538
8.72 558
8.74 573
8.76 532
8.78 565
8.8 573
8.82 488
8.84 557
8.86 530
8.88 595
8.9 554
8.92 545
8.94 586
8.96 534
8.98 560
9 552
9.02 581
9.04 563
9.06 579
9.08 576
9.1 557
9.12 605
9.14 548
9.16 546
9.18 583
9.2 595
9.22 585
9.24 575
9.26 601
9.28 625
9.3 583
9.32 618
9.34 589
9.36 613
9.38 558
9.4 574
9.42 565
9.44 597
9.46 599
9.48 571
9.5 604
9.52 589
9.54 546
9.56 584
9.58 579
9.6 539
9.62 589
9.64 574
9.66 560
9.68 560
9.7 592
9.72 558
9.74 617
9.76 566
9.78 580
9.8 501
9.82 530
9.84 581
9.86 557
9.88 554
9.9 538
9.92 590
9.94 532
9.96 566
9.98 564
10 538
10.02 536
10.04 512
10.06 523
10.08 554
10.1 527
10.12 552
10.14 577
10.16 536
10.18 510
10.2 552
10.22 548
10.24 551
10.26 545
10.28 523
10.3 527
10.32 540
10.34 513
10.36 537
10.38 506
10.4 537
10.42 526
10.44 585
10.46 544
10.48 542
10.5 539
10.52 530
10.54 556
10.56 526
10.58 546
10.6 565
10.62 530
10.64 541
10.66 493
10.68 570
10.7 549
10.72 523
10.74 575
10.76 576
10.78 569
10.8 532
10.82 563
10.84 538
10.86 551
10.88 516
10.9 520
10.92 536
10.94 568
10.96 534
10.98 568
11 561
11.02 542
11.04 521
11.06 524
11.08 484
11.1 518
11.12 564
11.14 574
11.16 535
11.18 573
11.2 545
11.22 480
11.24 511
11.26 492
11.28 536
11.3 534
11.32 543
11.34 518
11.36 508
11.38 497
11.4 519
11.42 498
11.44 502
11.46 568
11.48 557
11.5 601
11.52 524
11.54 518
11.56 490
11.58 518
11.6 492
11.62 516
11.64 468
11.66 484
11.68 520
11.7 543
11.72 498
11.74 519
11.76 522
11.78 546
11.8 546
11.82 523
11.84 485
11.86 518
11.88 496
11.9 546
11.92 541
11.94 542
11.96 520
11.98 520
12 547
12.02 495
12.04 493
12.06 535
12.08 526
12.1 501
12.12 520
12.14 517
12.16 541
12.18 495
12.2 550
12.22 523
12.24 520
12.26 530
12.28 507
12.3 471
12.32 512
12.34 555
12.36 532
12.38 500
12.4 535
12.42 504
12.44 518
12.46 504
12.48 536
12.5 510
12.52 522
12.54 549
12.56 494
12.58 538
12.6 506
12.62 512
12.64 509
12.66 527
12.68 528
12.7 534
12.72 504
12.74 519
12.76 542
12.78 542
12.8 534
12.82 565
12.84 546
12.86 486
12.88 527
12.9 527
12.92 523
12.94 561
12.96 516
12.98 517
13 553
13.02 517
13.04 522
13.06 528
13.08 517
13.1 532
13.12 578
13.14 539
13.16 526
13.18 553
13.2 523
13.22 549
13.24 521
13.26 553
13.28 551
13.3 534
13.32 546
13.34 550
13.36 552
13.38 528
13.4 580
13.42 532
13.44 597
13.46 574
13.48 549
13.5 599
13.52 598
13.54 568
13.56 528
13.58 549
13.6 567
13.62 563
13.64 572
13.66 526
13.68 556
13.7 582
13.72 539
13.74 539
13.76 537
13.78 515
13.8 554
13.82 536
13.84 542
13.86 605
13.88 599
13.9 591
13.92 567
13.94 552
13.96 515
13.98 551
14 561
14.02 556
14.04 572
14.06 568
14.08 587
14.1 568
14.12 582
14.14 584
14.16 572
14.18 587
14.2 609
14.22 602
14.24 615
14.26 574
14.28 544
14.3 572
14.32 574
14.34 586
14.36 609
14.38 582
14.4 585
14.42 587
14.44 592
14.46 586
14.48 623
14.5 575
14.52 587
14.54 579
14.56 610
14.58 618
14.6 567
14.62 601
14.64 594
14.66 581
14.68 597
14.7 593
14.72 601
14.74 588
14.76 599
14.78 595
14.8 619
14.82 645
14.84 568
14.86 621
14.88 610
14.9 620
14.92 657
14.94 635
14.96 599
14.98 645
15 629
15.02 625
15.04 603
15.06 589
15.08 588
15.1 633
15.12 656
15.14 620
15.16 607
15.18 674
15.2 646
15.22 624
15.24 633
15.26 644
15.28 623
15.3 649
15.32 621
15.34 632
15.36 669
15.38 659
15.4 632
15.42 658
15.44 679
15.46 657
15.48 640
15.5 661
15.52 680
15.54 690
15.56 660
15.58 654
15.6 690
15.62 648
15.64 677
15.66 632
15.68 663
15.7 632
15.72 646
15.74 658
15.76 659
15.78 651
15.8 689
15.82 683
15.84 712
15.86 694
15.88 668
15.9 696
15.92 668
15.94 713
15.96 674
15.98 672
16 699
16.02 702
16.04 688
16.06 672
16.08 667
16.1 721
16.12 713
16.14 654
16.16 699
16.18 718
16.2 696
16.22 717
16.24 711
16.26 748
16.28 733
16.3 693
16.32 700
16.34 730
16.36 738
16.38 746
16.4 737
16.42 718
16.44 735
16.46 734
16.48 758
16.5 707
16.52 733
16.54 747
16.56 761
16.58 793
16.6 724
16.62 739
16.64 770
16.66 769
16.68 723
16.7 767
16.72 784
16.74 800
16.76 756
16.78 801
16.8 802
16.82 741
16.84 784
16.86 787
16.88 807
16.9 811
16.92 807
16.94 778
16.96 809
16.98 774
17 725
17.02 802
17.04 766
17.06 791
17.08 795
17.1 790
17.12 801
17.14 775
17.16 804
17.18 770
17.2 779
17.22 830
17.24 796
17.26 771
17.28 848
17.3 767
17.32 842
17.34 821
17.36 874
17.38 870
17.4 851
17.42 815
17.44 875
17.46 830
17.48 818
17.5 828
17.52 838
17.54 863
17.56 855
17.58 792
17.6 886
17.62 847
17.64 887
17.66 882
17.68 838
17.7 937
17.72 805
17.74 782
17.76 887
17.78 874
17.8 840
17.82 874
17.84 887
17.86 910
17.88 834
17.9 853
17.92 838
17.94 916
17.96 879
17.98 891
18 871
18.02 898
18.04 875
18.06 886
18.08 920
18.1 875
18.12 861
18.14 911
18.16 896
18.18 949
18.2 922
18.22 900
18.24 910
18.26 933
18.28 910
18.3 926
18.32 962
18.34 1004
18.36 930
18.38 977
18.4 969
18.42 935
18.44 972
18.46 983
18.48 952
18.5 956
18.52 904
18.54 911
18.56 970
18.58 941
18.6 983
18.62 921
18.64 948
18.66 950
18.68 1010
18.7 962
18.72 1017
18.74 1011
18.76 1011
18.78 987
18.8 1053
18.82 1031
18.84 1098
18.86 1006
18.88 986
18.9 1003
18.92 1002
18.94 971
18.96 1039
18.98 1027
19 1049
19.02 1004
19.04 1060
19.06 1096
19.08 1015
19.1 1017
19.12 992
19.14 1044
19.16 1015
19.18 1067
19.2 1053
19.22 1028
19.24 1042
19.26 1067
19.28 1113
19.3 1083
19.32 1070
19.34 1131
19.36 1067
19.38 1080
19.4 1070
19.42 1119
19.44 1063
19.46 1019
19.48 1071
19.5 1109
19.52 1089
19.54 1056
19.56 1082
19.58 1154
19.6 1147
19.62 1135
19.64 1068
19.66 1076
19.68 1101
19.7 1098
19.72 1044
19.74 1083
19.76 1132
19.78 1100
19.8 1062
19.82 1129
19.84 1119
19.86 1113
19.88 1117
19.9 1089
19.92 1108
19.94 1143
19.96 1100
19.98 1129
20 1127