File: xrd-UiO-67/pxrddata/107-6.ASC
3 1849
3.02 1771
3.04 1683
3.06 1567
3.08 1429
3.1 1381
3.12 1318
3.14 1257
3.16 1249
3.18 1206
3.2 1255
3.22 1290
3.24 1205
3.26 1199
3.28 1236
3.3 1241
3.32 1141
3.34 1139
3.36 1117
3.38 1101
3.4 1147
3.42 1073
3.44 1063
3.46 1130
3.48 1092
3.5 1125
3.52 1082
3.54 1010
3.56 1076
3.58 1037
3.6 1043
3.62 1038
3.64 1005
3.66 1019
3.68 1010
3.7 1017
3.72 1077
3.74 1015
3.76 1005
3.78 1011
3.8 1005
3.82 1044
3.84 1039
3.86 1014
3.88 968
3.9 982
3.92 984
3.94 981
3.96 929
3.98 1012
4 1050
4.02 952
4.04 989
4.06 1037
4.08 988
4.1 983
4.12 993
4.14 964
4.16 1033
4.18 1018
4.2 952
4.22 981
4.24 1019
4.26 939
4.28 1032
4.3 1043
4.32 971
4.34 954
4.36 984
4.38 997
4.4 1020
4.42 956
4.44 984
4.46 992
4.48 944
4.5 957
4.52 1023
4.54 966
4.56 978
4.58 980
4.6 1058
4.62 988
4.64 1031
4.66 996
4.68 1015
4.7 1007
4.72 954
4.74 1000
4.76 969
4.78 985
4.8 986
4.82 980
4.84 1020
4.86 1070
4.88 1020
4.9 974
4.92 1036
4.94 1009
4.96 977
4.98 1012
5 970
5.02 991
5.04 991
5.06 994
5.08 1028
5.1 1010
5.12 995
5.14 956
5.16 992
5.18 981
5.2 1057
5.22 1022
5.24 965
5.26 987
5.28 1029
5.3 1021
5.32 1026
5.34 1007
5.36 988
5.38 1019
5.4 1004
5.42 915
5.44 928
5.46 1019
5.48 964
5.5 947
5.52 952
5.54 938
5.56 952
5.58 955
5.6 964
5.62 952
5.64 905
5.66 927
5.68 872
5.7 887
5.72 934
5.74 867
5.76 893
5.78 872
5.8 843
5.82 907
5.84 867
5.86 871
5.88 793
5.9 851
5.92 823
5.94 844
5.96 791
5.98 790
6 801
6.02 851
6.04 811
6.06 784
6.08 780
6.1 771
6.12 787
6.14 772
6.16 766
6.18 721
6.2 725
6.22 751
6.24 675
6.26 703
6.28 728
6.3 699
6.32 712
6.34 762
6.36 738
6.38 663
6.4 683
6.42 717
6.44 640
6.46 662
6.48 745
6.5 682
6.52 684
6.54 650
6.56 683
6.58 670
6.6 658
6.62 668
6.64 635
6.66 666
6.68 703
6.7 686
6.72 626
6.74 672
6.76 677
6.78 677
6.8 635
6.82 709
6.84 676
6.86 633
6.88 617
6.9 613
6.92 614
6.94 641
6.96 635
6.98 626
7 615
7.02 659
7.04 632
7.06 632
7.08 578
7.1 610
7.12 605
7.14 623
7.16 651
7.18 616
7.2 640
7.22 586
7.24 597
7.26 598
7.28 618
7.3 599
7.32 589
7.34 591
7.36 597
7.38 646
7.4 617
7.42 603
7.44 615
7.46 596
7.48 639
7.5 608
7.52 622
7.54 558
7.56 607
7.58 638
7.6 611
7.62 608
7.64 588
7.66 632
7.68 663
7.7 630
7.72 620
7.74 621
7.76 594
7.78 574
7.8 578
7.82 609
7.84 569
7.86 596
7.88 622
7.9 579
7.92 602
7.94 584
7.96 633
7.98 555
8 624
8.02 598
8.04 571
8.06 617
8.08 613
8.1 633
8.12 560
8.14 619
8.16 586
8.18 582
8.2 561
8.22 595
8.24 616
8.26 645
8.28 570
8.3 611
8.32 618
8.34 632
8.36 579
8.38 640
8.4 615
8.42 603
8.44 597
8.46 623
8.48 589
8.5 558
8.52 589
8.54 635
8.56 572
8.58 648
8.6 591
8.62 558
8.64 624
8.66 621
8.68 585
8.7 625
8.72 605
8.74 560
8.76 614
8.78 588
8.8 584
8.82 604
8.84 559
8.86 581
8.88 598
8.9 590
8.92 599
8.94 600
8.96 589
8.98 614
9 639
9.02 619
9.04 624
9.06 606
9.08 609
9.1 615
9.12 593
9.14 594
9.16 591
9.18 619
9.2 628
9.22 642
9.24 591
9.26 611
9.28 616
9.3 589
9.32 565
9.34 561
9.36 639
9.38 628
9.4 629
9.42 602
9.44 623
9.46 646
9.48 607
9.5 623
9.52 628
9.54 623
9.56 605
9.58 650
9.6 619
9.62 664
9.64 611
9.66 603
9.68 614
9.7 627
9.72 630
9.74 585
9.76 617
9.78 609
9.8 611
9.82 596
9.84 596
9.86 648
9.88 600
9.9 611
9.92 632
9.94 573
9.96 596
9.98 608
10 631
10.02 617
10.04 639
10.06 602
10.08 635
10.1 600
10.12 585
10.14 606
10.16 615
10.18 635
10.2 626
10.22 647
10.24 627
10.26 631
10.28 602
10.3 604
10.32 625
10.34 593
10.36 605
10.38 597
10.4 602
10.42 614
10.44 650
10.46 645
10.48 613
10.5 585
10.52 553
10.54 612
10.56 598
10.58 613
10.6 600
10.62 562
10.64 620
10.66 666
10.68 624
10.7 615
10.72 624
10.74 587
10.76 635
10.78 603
10.8 540
10.82 577
10.84 539
10.86 602
10.88 620
10.9 624
10.92 637
10.94 633
10.96 620
10.98 592
11 633
11.02 668
11.04 567
11.06 623
11.08 574
11.1 658
11.12 632
11.14 608
11.16 583
11.18 644
11.2 597
11.22 606
11.24 600
11.26 610
11.28 606
11.3 636
11.32 605
11.34 607
11.36 622
11.38 628
11.4 584
11.42 608
11.44 560
11.46 618
11.48 594
11.5 613
11.52 614
11.54 618
11.56 610
11.58 601
11.6 584
11.62 631
11.64 625
11.66 591
11.68 599
11.7 614
11.72 575
11.74 586
11.76 639
11.78 601
11.8 578
11.82 580
11.84 631
11.86 591
11.88 598
11.9 595
11.92 609
11.94 654
11.96 629
11.98 623
12 599
12.02 623
12.04 631
12.06 568
12.08 597
12.1 641
12.12 601
12.14 592
12.16 612
12.18 614
12.2 625
12.22 598
12.24 617
12.26 666
12.28 644
12.3 619
12.32 642
12.34 639
12.36 675
12.38 633
12.4 651
12.42 624
12.44 625
12.46 635
12.48 610
12.5 653
12.52 618
12.54 644
12.56 645
12.58 656
12.6 622
12.62 590
12.64 607
12.66 633
12.68 592
12.7 659
12.72 605
12.74 657
12.76 654
12.78 637
12.8 586
12.82 625
12.84 656
12.86 641
12.88 654
12.9 637
12.92 653
12.94 618
12.96 679
12.98 655
13 626
13.02 634
13.04 683
13.06 665
13.08 595
13.1 638
13.12 658
13.14 675
13.16 654
13.18 675
13.2 664
13.22 675
13.24 673
13.26 675
13.28 622
13.3 627
13.32 637
13.34 659
13.36 630
13.38 681
13.4 652
13.42 714
13.44 674
13.46 674
13.48 673
13.5 687
13.52 717
13.54 648
13.56 687
13.58 691
13.6 655
13.62 642
13.64 636
13.66 636
13.68 715
13.7 662
13.72 656
13.74 680
13.76 661
13.78 715
13.8 683
13.82 664
13.84 702
13.86 685
13.88 705
13.9 666
13.92 711
13.94 683
13.96 707
13.98 696
14 691
14.02 692
14.04 690
14.06 697
14.08 711
14.1 697
14.12 696
14.14 687
14.16 698
14.18 672
14.2 683
14.22 663
14.24 683
14.26 678
14.28 682
14.3 711
14.32 726
14.34 692
14.36 698
14.38 737
14.4 756
14.42 696
14.44 743
14.46 701
14.48 756
14.5 719
14.52 719
14.54 757
14.56 745
14.58 671
14.6 730
14.62 733
14.64 710
14.66 754
14.68 706
14.7 720
14.72 757
14.74 685
14.76 785
14.78 720
14.8 759
14.82 768
14.84 764
14.86 843
14.88 753
14.9 760
14.92 721
14.94 765
14.96 789
14.98 734
15 771
15.02 805
15.04 724
15.06 763
15.08 768
15.1 783
15.12 802
15.14 784
15.16 795
15.18 781
15.2 843
15.22 784
15.24 749
15.26 805
15.28 785
15.3 794
15.32 760
15.34 817
15.36 769
15.38 818
15.4 785
15.42 790
15.44 831
15.46 849
15.48 786
15.5 817
15.52 805
15.54 823
15.56 813
15.58 838
15.6 803
15.62 784
15.64 837
15.66 859
15.68 804
15.7 846
15.72 791
15.74 812
15.76 827
15.78 867
15.8 817
15.82 853
15.84 848
15.86 847
15.88 847
15.9 894
15.92 833
15.94 881
15.96 873
15.98 816
16 881
16.02 874
16.04 866
16.06 851
16.08 824
16.1 882
16.12 893
16.14 897
16.16 897
16.18 894
16.2 898
16.22 937
16.24 876
16.26 880
16.28 854
16.3 872
16.32 907
16.34 920
16.36 893
16.38 884
16.4 940
16.42 857
16.44 958
16.46 950
16.48 880
16.5 904
16.52 943
16.54 882
16.56 912
16.58 947
16.6 927
16.62 943
16.64 889
16.66 944
16.68 989
16.7 919
16.72 942
16.74 989
16.76 905
16.78 957
16.8 986
16.82 973
16.84 988
16.86 959
16.88 1021
16.9 1007
16.92 1052
16.94 975
16.96 989
16.98 1026
17 1012
17.02 997
17.04 986
17.06 959
17.08 937
17.1 1027
17.12 1010
17.14 974
17.16 989
17.18 1078
17.2 987
17.22 1032
17.24 1022
17.26 1037
17.28 991
17.3 1037
17.32 1008
17.34 1012
17.36 1030
17.38 1019
17.4 1028
17.42 1062
17.44 1052
17.46 1105
17.48 1006
17.5 1060
17.52 1101
17.54 1070
17.56 1053
17.58 1034
17.6 1039
17.62 1019
17.64 1092
17.66 1083
17.68 1041
17.7 1100
17.72 1037
17.74 1098
17.76 1065
17.78 1090
17.8 1077
17.82 1068
17.84 1120
17.86 1116
17.88 1167
17.9 1138
17.92 1080
17.94 1122
17.96 1112
17.98 1101
18 1126
18.02 1154
18.04 1131
18.06 1091
18.08 1171
18.1 1094
18.12 1135
18.14 1115
18.16 1137
18.18 1147
18.2 1135
18.22 1168
18.24 1175
18.26 1124
18.28 1132
18.3 1164
18.32 1178
18.34 1207
18.36 1232
18.38 1157
18.4 1169
18.42 1164
18.44 1209
18.46 1207
18.48 1202
18.5 1199
18.52 1135
18.54 1186
18.56 1176
18.58 1189
18.6 1169
18.62 1141
18.64 1243
18.66 1236
18.68 1162
18.7 1135
18.72 1276
18.74 1225
18.76 1276
18.78 1219
18.8 1241
18.82 1271
18.84 1213
18.86 1229
18.88 1259
18.9 1290
18.92 1197
18.94 1273
18.96 1239
18.98 1316
19 1218
19.02 1243
19.04 1183
19.06 1238
19.08 1277
19.1 1277
19.12 1213
19.14 1284
19.16 1274
19.18 1274
19.2 1234
19.22 1238
19.24 1324
19.26 1281
19.28 1324
19.3 1260
19.32 1261
19.34 1322
19.36 1314
19.38 1296
19.4 1272
19.42 1262
19.44 1307
19.46 1306
19.48 1299
19.5 1315
19.52 1338
19.54 1286
19.56 1344
19.58 1330
19.6 1343
19.62 1321
19.64 1321
19.66 1274
19.68 1325
19.7 1318
19.72 1303
19.74 1392
19.76 1335
19.78 1312
19.8 1292
19.82 1323
19.84 1352
19.86 1363
19.88 1385
19.9 1349
19.92 1301
19.94 1348
19.96 1323
19.98 1361
20 1375