File: xrd-UiO-67/pxrddata/107-5.ASC
3 2142
3.02 1973
3.04 1807
3.06 1720
3.08 1543
3.1 1477
3.12 1440
3.14 1440
3.16 1436
3.18 1335
3.2 1360
3.22 1315
3.24 1350
3.26 1309
3.28 1257
3.3 1199
3.32 1244
3.34 1238
3.36 1194
3.38 1229
3.4 1218
3.42 1156
3.44 1131
3.46 1141
3.48 1222
3.5 1205
3.52 1118
3.54 1133
3.56 1125
3.58 1166
3.6 1145
3.62 1087
3.64 1139
3.66 1076
3.68 1125
3.7 1121
3.72 1062
3.74 1121
3.76 1103
3.78 1079
3.8 1115
3.82 1093
3.84 1059
3.86 1115
3.88 1065
3.9 1105
3.92 1131
3.94 1023
3.96 1103
3.98 1114
4 1061
4.02 1121
4.04 1129
4.06 1030
4.08 1038
4.1 1154
4.12 1054
4.14 1119
4.16 1054
4.18 1126
4.2 1068
4.22 1099
4.24 1048
4.26 1112
4.28 1115
4.3 1010
4.32 1102
4.34 1089
4.36 1102
4.38 1115
4.4 1093
4.42 1088
4.44 1104
4.46 1141
4.48 1145
4.5 1150
4.52 1176
4.54 1153
4.56 1159
4.58 1089
4.6 1063
4.62 1149
4.64 1120
4.66 1106
4.68 1147
4.7 1167
4.72 1230
4.74 1115
4.76 1133
4.78 1197
4.8 1160
4.82 1144
4.84 1179
4.86 1168
4.88 1171
4.9 1200
4.92 1171
4.94 1206
4.96 1207
4.98 1189
5 1253
5.02 1175
5.04 1249
5.06 1234
5.08 1223
5.1 1240
5.12 1286
5.14 1299
5.16 1234
5.18 1293
5.2 1282
5.22 1328
5.24 1332
5.26 1285
5.28 1359
5.3 1338
5.32 1380
5.34 1391
5.36 1368
5.38 1384
5.4 1382
5.42 1319
5.44 1378
5.46 1357
5.48 1427
5.5 1378
5.52 1398
5.54 1402
5.56 1391
5.58 1388
5.6 1458
5.62 1448
5.64 1413
5.66 1489
5.68 1406
5.7 1421
5.72 1463
5.74 1420
5.76 1358
5.78 1379
5.8 1372
5.82 1344
5.84 1277
5.86 1264
5.88 1209
5.9 1235
5.92 1234
5.94 1117
5.96 1177
5.98 1160
6 1145
6.02 1082
6.04 1079
6.06 1006
6.08 1025
6.1 1037
6.12 960
6.14 946
6.16 902
6.18 943
6.2 895
6.22 899
6.24 917
6.26 887
6.28 924
6.3 851
6.32 882
6.34 857
6.36 828
6.38 821
6.4 801
6.42 805
6.44 792
6.46 803
6.48 740
6.5 799
6.52 758
6.54 758
6.56 718
6.58 741
6.6 754
6.62 721
6.64 680
6.66 725
6.68 738
6.7 723
6.72 691
6.74 719
6.76 752
6.78 725
6.8 726
6.82 721
6.84 638
6.86 670
6.88 682
6.9 638
6.92 702
6.94 710
6.96 658
6.98 690
7 634
7.02 614
7.04 655
7.06 637
7.08 692
7.1 650
7.12 614
7.14 605
7.16 617
7.18 571
7.2 642
7.22 612
7.24 689
7.26 593
7.28 625
7.3 624
7.32 609
7.34 612
7.36 619
7.38 602
7.4 623
7.42 622
7.44 607
7.46 588
7.48 619
7.5 663
7.52 623
7.54 641
7.56 561
7.58 645
7.6 593
7.62 649
7.64 596
7.66 611
7.68 577
7.7 555
7.72 599
7.74 635
7.76 607
7.78 602
7.8 576
7.82 589
7.84 570
7.86 517
7.88 615
7.9 555
7.92 613
7.94 576
7.96 585
7.98 593
8 599
8.02 620
8.04 595
8.06 623
8.08 559
8.1 598
8.12 589
8.14 598
8.16 600
8.18 645
8.2 594
8.22 571
8.24 578
8.26 579
8.28 580
8.3 574
8.32 559
8.34 539
8.36 549
8.38 565
8.4 574
8.42 605
8.44 593
8.46 566
8.48 563
8.5 595
8.52 615
8.54 589
8.56 642
8.58 582
8.6 608
8.62 595
8.64 616
8.66 573
8.68 575
8.7 600
8.72 634
8.74 618
8.76 630
8.78 603
8.8 632
8.82 610
8.84 590
8.86 606
8.88 616
8.9 604
8.92 560
8.94 627
8.96 595
8.98 626
9 645
9.02 609
9.04 642
9.06 692
9.08 628
9.1 652
9.12 639
9.14 590
9.16 659
9.18 692
9.2 691
9.22 683
9.24 629
9.26 631
9.28 689
9.3 717
9.32 701
9.34 727
9.36 693
9.38 730
9.4 693
9.42 710
9.44 702
9.46 657
9.48 638
9.5 671
9.52 670
9.54 651
9.56 638
9.58 655
9.6 657
9.62 591
9.64 618
9.66 655
9.68 644
9.7 667
9.72 616
9.74 686
9.76 644
9.78 617
9.8 673
9.82 652
9.84 609
9.86 665
9.88 629
9.9 635
9.92 652
9.94 604
9.96 665
9.98 603
10 584
10.02 642
10.04 628
10.06 655
10.08 592
10.1 664
10.12 638
10.14 606
10.16 587
10.18 616
10.2 650
10.22 636
10.24 631
10.26 614
10.28 594
10.3 678
10.32 607
10.34 601
10.36 619
10.38 638
10.4 619
10.42 606
10.44 621
10.46 663
10.48 607
10.5 644
10.52 642
10.54 617
10.56 616
10.58 624
10.6 591
10.62 645
10.64 654
10.66 607
10.68 640
10.7 606
10.72 603
10.74 615
10.76 608
10.78 588
10.8 604
10.82 630
10.84 685
10.86 675
10.88 621
10.9 663
10.92 625
10.94 614
10.96 626
10.98 641
11 650
11.02 623
11.04 598
11.06 594
11.08 653
11.1 650
11.12 578
11.14 628
11.16 623
11.18 608
11.2 634
11.22 610
11.24 602
11.26 586
11.28 580
11.3 636
11.32 551
11.34 588
11.36 578
11.38 608
11.4 584
11.42 635
11.44 615
11.46 617
11.48 608
11.5 631
11.52 596
11.54 565
11.56 570
11.58 602
11.6 590
11.62 593
11.64 603
11.66 532
11.68 565
11.7 568
11.72 596
11.74 562
11.76 563
11.78 619
11.8 563
11.82 644
11.84 576
11.86 581
11.88 529
11.9 594
11.92 597
11.94 583
11.96 588
11.98 576
12 585
12.02 618
12.04 614
12.06 551
12.08 611
12.1 617
12.12 549
12.14 612
12.16 582
12.18 574
12.2 542
12.22 566
12.24 590
12.26 548
12.28 562
12.3 566
12.32 579
12.34 603
12.36 586
12.38 542
12.4 566
12.42 576
12.44 584
12.46 618
12.48 532
12.5 589
12.52 601
12.54 596
12.56 605
12.58 535
12.6 564
12.62 551
12.64 567
12.66 545
12.68 612
12.7 594
12.72 581
12.74 566
12.76 547
12.78 583
12.8 569
12.82 551
12.84 592
12.86 537
12.88 588
12.9 613
12.92 580
12.94 567
12.96 594
12.98 619
13 632
13.02 577
13.04 561
13.06 565
13.08 618
13.1 614
13.12 584
13.14 579
13.16 561
13.18 556
13.2 612
13.22 585
13.24 561
13.26 569
13.28 632
13.3 547
13.32 579
13.34 585
13.36 590
13.38 543
13.4 596
13.42 608
13.44 618
13.46 600
13.48 579
13.5 642
13.52 584
13.54 647
13.56 584
13.58 551
13.6 602
13.62 568
13.64 591
13.66 598
13.68 594
13.7 616
13.72 613
13.74 641
13.76 606
13.78 616
13.8 602
13.82 612
13.84 581
13.86 585
13.88 629
13.9 609
13.92 588
13.94 636
13.96 665
13.98 620
14 618
14.02 606
14.04 654
14.06 603
14.08 642
14.1 666
14.12 639
14.14 632
14.16 632
14.18 636
14.2 632
14.22 618
14.24 715
14.26 638
14.28 645
14.3 598
14.32 658
14.34 662
14.36 644
14.38 662
14.4 691
14.42 624
14.44 643
14.46 644
14.48 681
14.5 636
14.52 678
14.54 640
14.56 649
14.58 607
14.6 600
14.62 664
14.64 671
14.66 696
14.68 617
14.7 659
14.72 671
14.74 665
14.76 653
14.78 709
14.8 670
14.82 676
14.84 684
14.86 676
14.88 653
14.9 687
14.92 668
14.94 678
14.96 677
14.98 648
15 680
15.02 655
15.04 715
15.06 682
15.08 679
15.1 707
15.12 655
15.14 717
15.16 705
15.18 726
15.2 688
15.22 714
15.24 676
15.26 695
15.28 684
15.3 710
15.32 702
15.34 685
15.36 679
15.38 702
15.4 686
15.42 724
15.44 703
15.46 737
15.48 720
15.5 749
15.52 725
15.54 728
15.56 753
15.58 705
15.6 743
15.62 727
15.64 721
15.66 732
15.68 735
15.7 765
15.72 704
15.74 787
15.76 724
15.78 745
15.8 741
15.82 752
15.84 736
15.86 728
15.88 789
15.9 777
15.92 738
15.94 713
15.96 752
15.98 755
16 747
16.02 758
16.04 756
16.06 778
16.08 778
16.1 737
16.12 780
16.14 816
16.16 806
16.18 728
16.2 745
16.22 748
16.24 751
16.26 750
16.28 781
16.3 811
16.32 814
16.34 789
16.36 795
16.38 767
16.4 821
16.42 805
16.44 780
16.46 796
16.48 809
16.5 780
16.52 808
16.54 818
16.56 885
16.58 789
16.6 755
16.62 797
16.64 792
16.66 808
16.68 806
16.7 820
16.72 806
16.74 825
16.76 824
16.78 864
16.8 891
16.82 891
16.84 842
16.86 826
16.88 879
16.9 878
16.92 836
16.94 846
16.96 819
16.98 832
17 906
17.02 860
17.04 875
17.06 865
17.08 894
17.1 850
17.12 829
17.14 889
17.16 866
17.18 922
17.2 876
17.22 921
17.24 913
17.26 872
17.28 920
17.3 895
17.32 878
17.34 874
17.36 954
17.38 875
17.4 957
17.42 910
17.44 871
17.46 897
17.48 916
17.5 899
17.52 930
17.54 942
17.56 946
17.58 870
17.6 953
17.62 977
17.64 964
17.66 924
17.68 892
17.7 950
17.72 971
17.74 975
17.76 995
17.78 967
17.8 982
17.82 1011
17.84 928
17.86 1000
17.88 975
17.9 932
17.92 959
17.94 986
17.96 1022
17.98 1039
18 957
18.02 989
18.04 993
18.06 1000
18.08 964
18.1 1043
18.12 988
18.14 969
18.16 973
18.18 991
18.2 1038
18.22 960
18.24 1016
18.26 1006
18.28 1018
18.3 1019
18.32 1015
18.34 986
18.36 1074
18.38 1044
18.4 1045
18.42 1051
18.44 1062
18.46 1094
18.48 1058
18.5 1029
18.52 1091
18.54 1019
18.56 1040
18.58 1138
18.6 1032
18.62 1078
18.64 1063
18.66 1035
18.68 1071
18.7 1011
18.72 1106
18.74 1034
18.76 1103
18.78 1132
18.8 1079
18.82 1092
18.84 1129
18.86 1133
18.88 1161
18.9 1123
18.92 1067
18.94 1110
18.96 1177
18.98 1127
19 1038
19.02 1130
19.04 1132
19.06 1157
19.08 1138
19.1 1196
19.12 1167
19.14 1133
19.16 1169
19.18 1160
19.2 1119
19.22 1181
19.24 1161
19.26 1151
19.28 1209
19.3 1171
19.32 1179
19.34 1112
19.36 1210
19.38 1231
19.4 1185
19.42 1192
19.44 1186
19.46 1241
19.48 1215
19.5 1210
19.52 1210
19.54 1207
19.56 1236
19.58 1205
19.6 1234
19.62 1230
19.64 1155
19.66 1211
19.68 1183
19.7 1214
19.72 1227
19.74 1186
19.76 1248
19.78 1242
19.8 1196
19.82 1265
19.84 1230
19.86 1229
19.88 1214
19.9 1211
19.92 1233
19.94 1219
19.96 1160
19.98 1262
20 1253