File: xrd-UiO-67/pxrddata/107-2.ASC
3 1470
3.02 1321
3.04 1188
3.06 1053
3.08 974
3.1 896
3.12 825
3.14 816
3.16 770
3.18 733
3.2 781
3.22 710
3.24 751
3.26 736
3.28 698
3.3 694
3.32 638
3.34 654
3.36 644
3.38 631
3.4 640
3.42 629
3.44 627
3.46 608
3.48 585
3.5 621
3.52 580
3.54 591
3.56 576
3.58 589
3.6 561
3.62 601
3.64 568
3.66 565
3.68 579
3.7 547
3.72 554
3.74 537
3.76 564
3.78 549
3.8 534
3.82 561
3.84 499
3.86 548
3.88 548
3.9 544
3.92 526
3.94 526
3.96 556
3.98 515
4 545
4.02 564
4.04 558
4.06 529
4.08 527
4.1 569
4.12 498
4.14 537
4.16 526
4.18 519
4.2 524
4.22 502
4.24 540
4.26 504
4.28 529
4.3 541
4.32 497
4.34 478
4.36 471
4.38 481
4.4 516
4.42 493
4.44 513
4.46 500
4.48 484
4.5 541
4.52 511
4.54 451
4.56 469
4.58 479
4.6 488
4.62 505
4.64 479
4.66 517
4.68 479
4.7 458
4.72 507
4.74 480
4.76 492
4.78 524
4.8 489
4.82 505
4.84 509
4.86 473
4.88 481
4.9 496
4.92 493
4.94 502
4.96 487
4.98 538
5 504
5.02 524
5.04 509
5.06 555
5.08 566
5.1 545
5.12 567
5.14 556
5.16 553
5.18 597
5.2 579
5.22 568
5.24 579
5.26 607
5.28 582
5.3 600
5.32 638
5.34 607
5.36 642
5.38 614
5.4 686
5.42 726
5.44 717
5.46 735
5.48 751
5.5 796
5.52 840
5.54 799
5.56 881
5.58 844
5.6 911
5.62 918
5.64 963
5.66 948
5.68 1004
5.7 992
5.72 944
5.74 991
5.76 1007
5.78 1088
5.8 1083
5.82 1128
5.84 1155
5.86 1178
5.88 1212
5.9 1269
5.92 1294
5.94 1290
5.96 1349
5.98 1292
6 1208
6.02 1098
6.04 1026
6.06 903
6.08 889
6.1 778
6.12 735
6.14 704
6.16 661
6.18 635
6.2 641
6.22 605
6.24 601
6.26 573
6.28 518
6.3 571
6.32 590
6.34 568
6.36 518
6.38 557
6.4 558
6.42 585
6.44 547
6.46 517
6.48 557
6.5 570
6.52 551
6.54 566
6.56 551
6.58 578
6.6 583
6.62 558
6.64 550
6.66 572
6.68 646
6.7 608
6.72 608
6.74 671
6.76 642
6.78 634
6.8 626
6.82 657
6.84 686
6.86 694
6.88 602
6.9 571
6.92 581
6.94 520
6.96 541
6.98 532
7 495
7.02 519
7.04 521
7.06 520
7.08 516
7.1 491
7.12 487
7.14 490
7.16 459
7.18 463
7.2 438
7.22 482
7.24 490
7.26 473
7.28 437
7.3 480
7.32 474
7.34 468
7.36 467
7.38 458
7.4 504
7.42 484
7.44 457
7.46 451
7.48 471
7.5 454
7.52 495
7.54 458
7.56 470
7.58 472
7.6 468
7.62 438
7.64 459
7.66 467
7.68 465
7.7 485
7.72 474
7.74 443
7.76 476
7.78 447
7.8 438
7.82 455
7.84 482
7.86 444
7.88 454
7.9 448
7.92 438
7.94 480
7.96 456
7.98 476
8 483
8.02 457
8.04 501
8.06 485
8.08 454
8.1 448
8.12 451
8.14 463
8.16 471
8.18 455
8.2 471
8.22 453
8.24 465
8.26 462
8.28 496
8.3 451
8.32 473
8.34 475
8.36 484
8.38 460
8.4 439
8.42 516
8.44 500
8.46 448
8.48 444
8.5 499
8.52 429
8.54 487
8.56 443
8.58 443
8.6 483
8.62 460
8.64 502
8.66 464
8.68 467
8.7 432
8.72 434
8.74 484
8.76 455
8.78 457
8.8 437
8.82 504
8.84 469
8.86 503
8.88 460
8.9 425
8.92 466
8.94 491
8.96 497
8.98 461
9 469
9.02 507
9.04 505
9.06 490
9.08 509
9.1 510
9.12 487
9.14 482
9.16 486
9.18 507
9.2 527
9.22 511
9.24 528
9.26 544
9.28 524
9.3 561
9.32 578
9.34 584
9.36 575
9.38 607
9.4 596
9.42 657
9.44 658
9.46 648
9.48 673
9.5 679
9.52 734
9.54 747
9.56 749
9.58 761
9.6 759
9.62 652
9.64 621
9.66 586
9.68 522
9.7 533
9.72 550
9.74 529
9.76 524
9.78 520
9.8 500
9.82 522
9.84 496
9.86 501
9.88 489
9.9 482
9.92 511
9.94 503
9.96 511
9.98 526
10 484
10.02 466
10.04 500
10.06 520
10.08 492
10.1 549
10.12 475
10.14 561
10.16 509
10.18 456
10.2 510
10.22 503
10.24 548
10.26 539
10.28 544
10.3 549
10.32 523
10.34 562
10.36 535
10.38 524
10.4 505
10.42 502
10.44 518
10.46 523
10.48 499
10.5 502
10.52 507
10.54 493
10.56 537
10.58 537
10.6 541
10.62 523
10.64 510
10.66 489
10.68 509
10.7 507
10.72 540
10.74 530
10.76 547
10.78 493
10.8 531
10.82 587
10.84 501
10.86 526
10.88 614
10.9 567
10.92 554
10.94 619
10.96 572
10.98 613
11 586
11.02 643
11.04 593
11.06 633
11.08 664
11.1 648
11.12 668
11.14 681
11.16 705
11.18 724
11.2 689
11.22 742
11.24 633
11.26 600
11.28 566
11.3 591
11.32 552
11.34 559
11.36 554
11.38 564
11.4 534
11.42 542
11.44 552
11.46 515
11.48 509
11.5 553
11.52 543
11.54 572
11.56 525
11.58 561
11.6 563
11.62 531
11.64 571
11.66 572
11.68 623
11.7 588
11.72 581
11.74 589
11.76 560
11.78 539
11.8 494
11.82 498
11.84 522
11.86 524
11.88 519
11.9 510
11.92 517
11.94 536
11.96 534
11.98 539
12 514
12.02 531
12.04 519
12.06 491
12.08 524
12.1 513
12.12 528
12.14 493
12.16 519
12.18 513
12.2 498
12.22 512
12.24 500
12.26 539
12.28 514
12.3 525
12.32 525
12.34 523
12.36 532
12.38 524
12.4 490
12.42 539
12.44 553
12.46 534
12.48 558
12.5 544
12.52 543
12.54 575
12.56 549
12.58 510
12.6 549
12.62 557
12.64 519
12.66 508
12.68 517
12.7 541
12.72 526
12.74 519
12.76 567
12.78 520
12.8 529
12.82 529
12.84 532
12.86 522
12.88 521
12.9 507
12.92 519
12.94 536
12.96 521
12.98 520
13 526
13.02 524
13.04 536
13.06 525
13.08 511
13.1 539
13.12 535
13.14 534
13.16 573
13.18 543
13.2 523
13.22 543
13.24 562
13.26 576
13.28 563
13.3 568
13.32 565
13.34 619
13.36 563
13.38 609
13.4 594
13.42 553
13.44 546
13.46 606
13.48 575
13.5 602
13.52 554
13.54 554
13.56 555
13.58 551
13.6 547
13.62 542
13.64 562
13.66 583
13.68 574
13.7 569
13.72 533
13.74 624
13.76 584
13.78 622
13.8 556
13.82 559
13.84 585
13.86 598
13.88 607
13.9 526
13.92 578
13.94 618
13.96 589
13.98 607
14 537
14.02 551
14.04 605
14.06 629
14.08 563
14.1 575
14.12 562
14.14 572
14.16 566
14.18 570
14.2 582
14.22 661
14.24 655
14.26 622
14.28 598
14.3 594
14.32 635
14.34 606
14.36 645
14.38 626
14.4 621
14.42 616
14.44 619
14.46 615
14.48 569
14.5 593
14.52 639
14.54 623
14.56 688
14.58 691
14.6 618
14.62 712
14.64 671
14.66 659
14.68 695
14.7 640
14.72 665
14.74 691
14.76 632
14.78 672
14.8 634
14.82 653
14.84 663
14.86 649
14.88 652
14.9 660
14.92 693
14.94 628
14.96 701
14.98 701
15 678
15.02 683
15.04 708
15.06 700
15.08 690
15.1 679
15.12 662
15.14 691
15.16 682
15.18 701
15.2 686
15.22 680
15.24 694
15.26 735
15.28 692
15.3 692
15.32 695
15.34 695
15.36 736
15.38 747
15.4 695
15.42 698
15.44 751
15.46 719
15.48 727
15.5 666
15.52 702
15.54 720
15.56 720
15.58 687
15.6 770
15.62 746
15.64 735
15.66 747
15.68 738
15.7 723
15.72 746
15.74 760
15.76 787
15.78 746
15.8 766
15.82 732
15.84 813
15.86 796
15.88 719
15.9 723
15.92 823
15.94 728
15.96 793
15.98 754
16 810
16.02 760
16.04 814
16.06 776
16.08 805
16.1 798
16.12 760
16.14 792
16.16 769
16.18 799
16.2 778
16.22 822
16.24 816
16.26 800
16.28 805
16.3 817
16.32 826
16.34 840
16.36 774
16.38 835
16.4 873
16.42 843
16.44 850
16.46 796
16.48 852
16.5 864
16.52 883
16.54 875
16.56 952
16.58 878
16.6 871
16.62 855
16.64 873
16.66 889
16.68 856
16.7 866
16.72 887
16.74 883
16.76 901
16.78 847
16.8 868
16.82 881
16.84 954
16.86 870
16.88 904
16.9 880
16.92 964
16.94 906
16.96 945
16.98 961
17 950
17.02 930
17.04 929
17.06 943
17.08 877
17.1 932
17.12 954
17.14 901
17.16 960
17.18 955
17.2 904
17.22 966
17.24 991
17.26 974
17.28 1029
17.3 1038
17.32 1030
17.34 1022
17.36 974
17.38 1003
17.4 997
17.42 1037
17.44 1005
17.46 967
17.48 986
17.5 1033
17.52 1025
17.54 1028
17.56 1083
17.58 987
17.6 1070
17.62 1042
17.64 1024
17.66 1076
17.68 1041
17.7 1057
17.72 1048
17.74 1042
17.76 1068
17.78 1057
17.8 1109
17.82 1090
17.84 1088
17.86 1083
17.88 1036
17.9 1053
17.92 1059
17.94 1124
17.96 1107
17.98 1107
18 1099
18.02 1182
18.04 1056
18.06 1121
18.08 1089
18.1 1153
18.12 1109
18.14 1096
18.16 1146
18.18 1146
18.2 1248
18.22 1128
18.24 1154
18.26 1099
18.28 1122
18.3 1167
18.32 1224
18.34 1273
18.36 1176
18.38 1214
18.4 1202
18.42 1212
18.44 1180
18.46 1158
18.48 1247
18.5 1166
18.52 1183
18.54 1223
18.56 1217
18.58 1226
18.6 1232
18.62 1259
18.64 1234
18.66 1231
18.68 1267
18.7 1263
18.72 1251
18.74 1295
18.76 1353
18.78 1281
18.8 1279
18.82 1357
18.84 1294
18.86 1262
18.88 1361
18.9 1267
18.92 1363
18.94 1326
18.96 1304
18.98 1323
19 1248
19.02 1349
19.04 1331
19.06 1373
19.08 1324
19.1 1377
19.12 1326
19.14 1358
19.16 1346
19.18 1360
19.2 1342
19.22 1411
19.24 1389
19.26 1444
19.28 1382
19.3 1418
19.32 1441
19.34 1438
19.36 1400
19.38 1463
19.4 1533
19.42 1364
19.44 1409
19.46 1476
19.48 1407
19.5 1472
19.52 1490
19.54 1469
19.56 1503
19.58 1464
19.6 1529
19.62 1475
19.64 1514
19.66 1555
19.68 1559
19.7 1574
19.72 1524
19.74 1532
19.76 1612
19.78 1538
19.8 1576
19.82 1624
19.84 1640
19.86 1573
19.88 1590
19.9 1613
19.92 1538
19.94 1508
19.96 1556
19.98 1515
20 1566