File: xrd-UiO-67/pxrddata/107-1.ASC
3 1804
3.02 1621
3.04 1590
3.06 1473
3.08 1360
3.1 1290
3.12 1216
3.14 1207
3.16 1227
3.18 1183
3.2 1133
3.22 1097
3.24 1109
3.26 1110
3.28 1114
3.3 1124
3.32 1103
3.34 1038
3.36 1035
3.38 1059
3.4 1081
3.42 1022
3.44 1057
3.46 1017
3.48 1072
3.5 1049
3.52 1034
3.54 1029
3.56 1080
3.58 999
3.6 1075
3.62 1045
3.64 1060
3.66 1007
3.68 1059
3.7 992
3.72 1091
3.74 1073
3.76 991
3.78 1032
3.8 1065
3.82 1065
3.84 1123
3.86 1103
3.88 1083
3.9 1091
3.92 1139
3.94 1154
3.96 1177
3.98 1188
4 1195
4.02 1192
4.04 1258
4.06 1332
4.08 1410
4.1 1357
4.12 1343
4.14 1292
4.16 1231
4.18 1161
4.2 1044
4.22 1098
4.24 1050
4.26 1030
4.28 1006
4.3 973
4.32 973
4.34 968
4.36 983
4.38 940
4.4 964
4.42 1000
4.44 938
4.46 971
4.48 948
4.5 980
4.52 976
4.54 937
4.56 996
4.58 1043
4.6 1001
4.62 1005
4.64 1000
4.66 989
4.68 948
4.7 992
4.72 1020
4.74 1096
4.76 1056
4.78 1089
4.8 1033
4.82 1118
4.84 1110
4.86 1153
4.88 1196
4.9 1169
4.92 1218
4.94 1194
4.96 1254
4.98 1302
5 1277
5.02 1298
5.04 1366
5.06 1440
5.08 1448
5.1 1463
5.12 1470
5.14 1590
5.16 1717
5.18 1753
5.2 1883
5.22 1844
5.24 2020
5.26 2104
5.28 2171
5.3 2331
5.32 2422
5.34 2571
5.36 2744
5.38 2972
5.4 3175
5.42 3124
5.44 3209
5.46 3065
5.48 3024
5.5 2963
5.52 2950
5.54 2993
5.56 3086
5.58 3164
5.6 3339
5.62 3419
5.64 3758
5.66 3883
5.68 4230
5.7 4675
5.72 4878
5.74 5410
5.76 5812
5.78 5827
5.8 5561
5.82 4765
5.84 3919
5.86 3142
5.88 2470
5.9 2068
5.92 1723
5.94 1491
5.96 1430
5.98 1335
6 1279
6.02 1216
6.04 1152
6.06 1077
6.08 1084
6.1 1133
6.12 1115
6.14 1035
6.16 989
6.18 1062
6.2 1011
6.22 1044
6.24 992
6.26 995
6.28 954
6.3 1001
6.32 982
6.34 998
6.36 1068
6.38 1030
6.4 1015
6.42 1040
6.44 1033
6.46 1101
6.48 1072
6.5 1112
6.52 1113
6.54 1135
6.56 1217
6.58 1173
6.6 1227
6.62 1265
6.64 1300
6.66 1367
6.68 1357
6.7 1346
6.72 1306
6.74 1276
6.76 1219
6.78 1226
6.8 1070
6.82 1023
6.84 964
6.86 900
6.88 904
6.9 833
6.92 811
6.94 729
6.96 732
6.98 771
7 777
7.02 705
7.04 689
7.06 734
7.08 675
7.1 711
7.12 695
7.14 676
7.16 694
7.18 727
7.2 716
7.22 726
7.24 758
7.26 718
7.28 702
7.3 666
7.32 668
7.34 715
7.36 681
7.38 699
7.4 726
7.42 689
7.44 674
7.46 714
7.48 653
7.5 675
7.52 694
7.54 707
7.56 740
7.58 682
7.6 659
7.62 694
7.64 704
7.66 700
7.68 713
7.7 653
7.72 652
7.74 688
7.76 682
7.78 651
7.8 682
7.82 699
7.84 663
7.86 646
7.88 713
7.9 686
7.92 644
7.94 670
7.96 678
7.98 708
8 654
8.02 654
8.04 715
8.06 661
8.08 711
8.1 700
8.12 737
8.14 717
8.16 711
8.18 703
8.2 676
8.22 679
8.24 707
8.26 631
8.28 667
8.3 670
8.32 701
8.34 660
8.36 670
8.38 614
8.4 700
8.42 661
8.44 701
8.46 681
8.48 697
8.5 703
8.52 615
8.54 663
8.56 688
8.58 667
8.6 669
8.62 685
8.64 627
8.66 681
8.68 664
8.7 662
8.72 654
8.74 670
8.76 650
8.78 682
8.8 710
8.82 685
8.84 725
8.86 692
8.88 700
8.9 736
8.92 657
8.94 717
8.96 781
8.98 788
9 825
9.02 779
9.04 814
9.06 822
9.08 860
9.1 862
9.12 961
9.14 919
9.16 1035
9.18 1033
9.2 1047
9.22 1192
9.24 1316
9.26 1379
9.28 1505
9.3 1585
9.32 1735
9.34 1777
9.36 1678
9.38 1585
9.4 1405
9.42 1268
9.44 1102
9.46 980
9.48 869
9.5 822
9.52 834
9.54 778
9.56 721
9.58 738
9.6 755
9.62 683
9.64 700
9.66 742
9.68 655
9.7 682
9.72 674
9.74 671
9.76 698
9.78 676
9.8 697
9.82 697
9.84 702
9.86 712
9.88 658
9.9 675
9.92 688
9.94 681
9.96 722
9.98 731
10 689
10.02 739
10.04 738
10.06 714
10.08 777
10.1 838
10.12 836
10.14 849
10.16 847
10.18 837
10.2 800
10.22 829
10.24 744
10.26 756
10.28 751
10.3 722
10.32 706
10.34 654
10.36 643
10.38 677
10.4 639
10.42 682
10.44 652
10.46 665
10.48 647
10.5 663
10.52 714
10.54 696
10.56 732
10.58 743
10.6 711
10.62 736
10.64 740
10.66 802
10.68 803
10.7 856
10.72 887
10.74 949
10.76 990
10.78 919
10.8 979
10.82 997
10.84 1038
10.86 1006
10.88 1071
10.9 1126
10.92 1209
10.94 1253
10.96 1285
10.98 1217
11 1117
11.02 1073
11.04 952
11.06 900
11.08 819
11.1 800
11.12 749
11.14 771
11.16 767
11.18 699
11.2 718
11.22 719
11.24 682
11.26 683
11.28 679
11.3 701
11.32 709
11.34 714
11.36 726
11.38 749
11.4 755
11.42 781
11.44 823
11.46 881
11.48 814
11.5 884
11.52 855
11.54 882
11.56 740
11.58 801
11.6 714
11.62 680
11.64 651
11.66 672
11.68 655
11.7 614
11.72 639
11.74 659
11.76 627
11.78 609
11.8 619
11.82 572
11.84 599
11.86 607
11.88 622
11.9 583
11.92 597
11.94 635
11.96 624
11.98 631
12 628
12.02 664
12.04 617
12.06 617
12.08 629
12.1 604
12.12 631
12.14 651
12.16 649
12.18 695
12.2 688
12.22 677
12.24 658
12.26 697
12.28 657
12.3 629
12.32 635
12.34 649
12.36 637
12.38 609
12.4 583
12.42 622
12.44 624
12.46 559
12.48 616
12.5 568
12.52 598
12.54 559
12.56 579
12.58 575
12.6 623
12.62 588
12.64 586
12.66 590
12.68 580
12.7 575
12.72 587
12.74 570
12.76 574
12.78 568
12.8 569
12.82 589
12.84 576
12.86 607
12.88 575
12.9 554
12.92 595
12.94 589
12.96 580
12.98 573
13 602
13.02 564
13.04 597
13.06 593
13.08 565
13.1 569
13.12 591
13.14 572
13.16 619
13.18 590
13.2 607
13.22 549
13.24 559
13.26 628
13.28 650
13.3 622
13.32 613
13.34 602
13.36 635
13.38 618
13.4 609
13.42 593
13.44 611
13.46 585
13.48 572
13.5 603
13.52 644
13.54 616
13.56 611
13.58 558
13.6 565
13.62 567
13.64 545
13.66 539
13.68 578
13.7 566
13.72 556
13.74 592
13.76 620
13.78 563
13.8 597
13.82 598
13.84 567
13.86 585
13.88 614
13.9 562
13.92 618
13.94 535
13.96 566
13.98 570
14 562
14.02 575
14.04 583
14.06 573
14.08 593
14.1 561
14.12 603
14.14 637
14.16 593
14.18 630
14.2 596
14.22 594
14.24 602
14.26 575
14.28 591
14.3 585
14.32 621
14.34 636
14.36 617
14.38 591
14.4 660
14.42 641
14.44 637
14.46 641
14.48 663
14.5 617
14.52 621
14.54 638
14.56 607
14.58 613
14.6 602
14.62 628
14.64 608
14.66 613
14.68 582
14.7 609
14.72 648
14.74 586
14.76 633
14.78 628
14.8 648
14.82 617
14.84 622
14.86 612
14.88 632
14.9 594
14.92 579
14.94 553
14.96 589
14.98 617
15 563
15.02 624
15.04 608
15.06 589
15.08 598
15.1 603
15.12 606
15.14 616
15.16 609
15.18 634
15.2 653
15.22 624
15.24 624
15.26 642
15.28 577
15.3 595
15.32 610
15.34 616
15.36 626
15.38 658
15.4 612
15.42 624
15.44 644
15.46 600
15.48 617
15.5 636
15.52 603
15.54 567
15.56 586
15.58 638
15.6 613
15.62 618
15.64 600
15.66 650
15.68 604
15.7 649
15.72 646
15.74 589
15.76 599
15.78 671
15.8 634
15.82 638
15.84 581
15.86 599
15.88 609
15.9 645
15.92 653
15.94 652
15.96 613
15.98 635
16 601
16.02 677
16.04 693
16.06 680
16.08 656
16.1 661
16.12 671
16.14 665
16.16 673
16.18 666
16.2 675
16.22 698
16.24 652
16.26 665
16.28 692
16.3 714
16.32 714
16.34 662
16.36 729
16.38 715
16.4 681
16.42 690
16.44 632
16.46 636
16.48 681
16.5 705
16.52 689
16.54 699
16.56 662
16.58 656
16.6 703
16.62 741
16.64 717
16.66 715
16.68 719
16.7 669
16.72 673
16.74 647
16.76 726
16.78 739
16.8 725
16.82 728
16.84 648
16.86 693
16.88 670
16.9 731
16.92 742
16.94 733
16.96 729
16.98 741
17 740
17.02 761
17.04 727
17.06 734
17.08 782
17.1 719
17.12 728
17.14 729
17.16 710
17.18 759
17.2 745
17.22 797
17.24 768
17.26 785
17.28 760
17.3 755
17.32 789
17.34 773
17.36 818
17.38 760
17.4 756
17.42 752
17.44 733
17.46 760
17.48 743
17.5 812
17.52 807
17.54 759
17.56 764
17.58 756
17.6 793
17.62 791
17.64 802
17.66 796
17.68 775
17.7 770
17.72 781
17.74 771
17.76 827
17.78 766
17.8 776
17.82 784
17.84 842
17.86 773
17.88 803
17.9 788
17.92 820
17.94 785
17.96 792
17.98 835
18 772
18.02 827
18.04 809
18.06 840
18.08 824
18.1 793
18.12 808
18.14 771
18.16 782
18.18 833
18.2 821
18.22 839
18.24 865
18.26 817
18.28 836
18.3 852
18.32 866
18.34 896
18.36 806
18.38 876
18.4 832
18.42 853
18.44 853
18.46 874
18.48 900
18.5 812
18.52 883
18.54 880
18.56 881
18.58 910
18.6 892
18.62 886
18.64 930
18.66 915
18.68 927
18.7 911
18.72 923
18.74 886
18.76 911
18.78 953
18.8 960
18.82 894
18.84 905
18.86 912
18.88 864
18.9 975
18.92 960
18.94 1001
18.96 972
18.98 941
19 973
19.02 959
19.04 947
19.06 949
19.08 1042
19.1 950
19.12 975
19.14 1008
19.16 1035
19.18 995
19.2 989
19.22 927
19.24 979
19.26 979
19.28 960
19.3 1026
19.32 974
19.34 938
19.36 976
19.38 1004
19.4 1087
19.42 1031
19.44 999
19.46 1110
19.48 1058
19.5 1060
19.52 1058
19.54 1107
19.56 1071
19.58 1089
19.6 1021
19.62 1041
19.64 972
19.66 988
19.68 1062
19.7 995
19.72 998
19.74 967
19.76 1059
19.78 1027
19.8 1079
19.82 1058
19.84 1041
19.86 1093
19.88 1107
19.9 1103
19.92 1069
19.94 1046
19.96 1037
19.98 1044
20 1069