File: xrd-UiO-67/pxrddata/2-1.ASC
2.8 5434
2.82 5122
2.84 4639
2.86 4187
2.88 3724
2.9 3591
2.92 3329
2.94 2889
2.96 2779
2.98 2462
3 2315
3.02 2166
3.04 2002
3.06 1862
3.08 1863
3.1 1699
3.12 1729
3.14 1754
3.16 1577
3.18 1717
3.2 1572
3.22 1600
3.24 1614
3.26 1598
3.28 1599
3.3 1583
3.32 1501
3.34 1505
3.36 1526
3.38 1479
3.4 1492
3.42 1421
3.44 1489
3.46 1497
3.48 1383
3.5 1361
3.52 1442
3.54 1428
3.56 1366
3.58 1372
3.6 1338
3.62 1381
3.64 1402
3.66 1430
3.68 1465
3.7 1393
3.72 1374
3.74 1327
3.76 1303
3.78 1238
3.8 1283
3.82 1331
3.84 1298
3.86 1256
3.88 1303
3.9 1262
3.92 1282
3.94 1242
3.96 1308
3.98 1249
4 1327
4.02 1288
4.04 1232
4.06 1254
4.08 1299
4.1 1267
4.12 1246
4.14 1252
4.16 1233
4.18 1243
4.2 1213
4.22 1244
4.24 1260
4.26 1249
4.28 1204
4.3 1282
4.32 1240
4.34 1232
4.36 1253
4.38 1227
4.4 1207
4.42 1218
4.44 1262
4.46 1229
4.48 1229
4.5 1241
4.52 1227
4.54 1192
4.56 1202
4.58 1227
4.6 1215
4.62 1207
4.64 1212
4.66 1249
4.68 1272
4.7 1232
4.72 1226
4.74 1277
4.76 1199
4.78 1267
4.8 1212
4.82 1234
4.84 1181
4.86 1243
4.88 1229
4.9 1216
4.92 1314
4.94 1250
4.96 1228
4.98 1243
5 1272
5.02 1277
5.04 1228
5.06 1220
5.08 1209
5.1 1284
5.12 1311
5.14 1255
5.16 1280
5.18 1311
5.2 1203
5.22 1312
5.24 1240
5.26 1289
5.28 1256
5.3 1284
5.32 1292
5.34 1341
5.36 1299
5.38 1290
5.4 1278
5.42 1310
5.44 1239
5.46 1272
5.48 1260
5.5 1283
5.52 1339
5.54 1378
5.56 1330
5.58 1315
5.6 1469
5.62 1444
5.64 1456
5.66 1458
5.68 1560
5.7 1632
5.72 1694
5.74 1676
5.76 1640
5.78 1597
5.8 1505
5.82 1507
5.84 1549
5.86 1420
5.88 1394
5.9 1359
5.92 1285
5.94 1199
5.96 1198
5.98 1162
6 1096
6.02 1028
6.04 1082
6.06 1104
6.08 1007
6.1 1028
6.12 1061
6.14 1037
6.16 955
6.18 1013
6.2 962
6.22 944
6.24 960
6.26 1026
6.28 969
6.3 1027
6.32 968
6.34 942
6.36 989
6.38 981
6.4 942
6.42 981
6.44 984
6.46 1000
6.48 1005
6.5 1020
6.52 982
6.54 1011
6.56 1033
6.58 1143
6.6 1091
6.62 1219
6.64 1119
6.66 1094
6.68 1091
6.7 1034
6.72 957
6.74 1030
6.76 949
6.78 962
6.8 947
6.82 903
6.84 932
6.86 888
6.88 840
6.9 846
6.92 800
6.94 865
6.96 765
6.98 801
7 813
7.02 790
7.04 808
7.06 802
7.08 794
7.1 839
7.12 770
7.14 874
7.16 816
7.18 807
7.2 758
7.22 746
7.24 738
7.26 773
7.28 795
7.3 776
7.32 754
7.34 804
7.36 812
7.38 786
7.4 742
7.42 758
7.44 747
7.46 716
7.48 769
7.5 790
7.52 784
7.54 742
7.56 753
7.58 785
7.6 736
7.62 759
7.64 737
7.66 766
7.68 786
7.7 733
7.72 742
7.74 719
7.76 740
7.78 728
7.8 764
7.82 773
7.84 784
7.86 761
7.88 750
7.9 773
7.92 764
7.94 747
7.96 695
7.98 761
8 787
8.02 747
8.04 775
8.06 742
8.08 735
8.1 714
8.12 751
8.14 693
8.16 775
8.18 720
8.2 789
8.22 735
8.24 760
8.26 752
8.28 685
8.3 757
8.32 740
8.34 726
8.36 710
8.38 734
8.4 696
8.42 726
8.44 741
8.46 746
8.48 731
8.5 767
8.52 723
8.54 714
8.56 721
8.58 739
8.6 691
8.62 760
8.64 739
8.66 785
8.68 742
8.7 749
8.72 769
8.74 747
8.76 745
8.78 730
8.8 721
8.82 737
8.84 730
8.86 705
8.88 758
8.9 794
8.92 812
8.94 723
8.96 729
8.98 787
9 751
9.02 788
9.04 779
9.06 757
9.08 723
9.1 777
9.12 770
9.14 773
9.16 763
9.18 821
9.2 788
9.22 818
9.24 800
9.26 795
9.28 873
9.3 818
9.32 876
9.34 897
9.36 948
9.38 977
9.4 887
9.42 842
9.44 818
9.46 880
9.48 829
9.5 806
9.52 817
9.54 800
9.56 802
9.58 726
9.6 758
9.62 729
9.64 733
9.66 757
9.68 767
9.7 701
9.72 684
9.74 710
9.76 731
9.78 738
9.8 742
9.82 706
9.84 724
9.86 728
9.88 705
9.9 705
9.92 719
9.94 745
9.96 748
9.98 721
10 703
10.02 729
10.04 723
10.06 743
10.08 754
10.1 761
10.12 715
10.14 695
10.16 762
10.18 721
10.2 755
10.22 724
10.24 749
10.26 717
10.28 697
10.3 703
10.32 732
10.34 732
10.36 769
10.38 741
10.4 754
10.42 754
10.44 739
10.46 716
10.48 676
10.5 751
10.52 755
10.54 740
10.56 731
10.58 746
10.6 750
10.62 754
10.64 753
10.66 741
10.68 723
10.7 729
10.72 741
10.74 728
10.76 723
10.78 777
10.8 730
10.82 771
10.84 753
10.86 816
10.88 802
10.9 810
10.92 833
10.94 845
10.96 870
10.98 849
11 859
11.02 798
11.04 785
11.06 792
11.08 839
11.1 820
11.12 806
11.14 751
11.16 765
11.18 757
11.2 741
11.22 737
11.24 726
11.26 744
11.28 755
11.3 706
11.32 776
11.34 738
11.36 795
11.38 829
11.4 795
11.42 776
11.44 769
11.46 776
11.48 780
11.5 790
11.52 781
11.54 830
11.56 774
11.58 743
11.6 803
11.62 720
11.64 723
11.66 770
11.68 750
11.7 768
11.72 718
11.74 724
11.76 704
11.78 756
11.8 730
11.82 753
11.84 716
11.86 730
11.88 720
11.9 717
11.92 707
11.94 691
11.96 769
11.98 731
12 739
12.02 760
12.04 691
12.06 729
12.08 705
12.1 710
12.12 719
12.14 700
12.16 712
12.18 692
12.2 754
12.22 713
12.24 698
12.26 735
12.28 705
12.3 700
12.32 748
12.34 715
12.36 716
12.38 716
12.4 699
12.42 689
12.44 734
12.46 724
12.48 711
12.5 773
12.52 738
12.54 726
12.56 730
12.58 709
12.6 749
12.62 732
12.64 751
12.66 749
12.68 764
12.7 743
12.72 722
12.74 730
12.76 775
12.78 732
12.8 754
12.82 702
12.84 743
12.86 769
12.88 758
12.9 704
12.92 767
12.94 720
12.96 759
12.98 716
13 757
13.02 791
13.04 733
13.06 760
13.08 727
13.1 740
13.12 804
13.14 732
13.16 745
13.18 781
13.2 739
13.22 759
13.24 761
13.26 782
13.28 796
13.3 768
13.32 720
13.34 739
13.36 749
13.38 776
13.4 764
13.42 730
13.44 753
13.46 716
13.48 755
13.5 738
13.52 766
13.54 731
13.56 714
13.58 736
13.6 743
13.62 774
13.64 724
13.66 789
13.68 789
13.7 790
13.72 768
13.74 779
13.76 824
13.78 736
13.8 738
13.82 740
13.84 770
13.86 741
13.88 727
13.9 785
13.92 785
13.94 746
13.96 746
13.98 781
14 765
14.02 772
14.04 727
14.06 765
14.08 758
14.1 766
14.12 824
14.14 805
14.16 786
14.18 770
14.2 770
14.22 759
14.24 769
14.26 820
14.28 849
14.3 787
14.32 800
14.34 841
14.36 768
14.38 765
14.4 765
14.42 805
14.44 765
14.46 746
14.48 776
14.5 786
14.52 811
14.54 805
14.56 797
14.58 828
14.6 824
14.62 820
14.64 810
14.66 799
14.68 831
14.7 828
14.72 773
14.74 789
14.76 828
14.78 782
14.8 824
14.82 829
14.84 826
14.86 818
14.88 776
14.9 825
14.92 815
14.94 824
14.96 825
14.98 834
15 832
15.02 835
15.04 833
15.06 820
15.08 818
15.1 842
15.12 815
15.14 870
15.16 856
15.18 864
15.2 904
15.22 852
15.24 832
15.26 880
15.28 866
15.3 903
15.32 877
15.34 806
15.36 876
15.38 863
15.4 823
15.42 893
15.44 867
15.46 846
15.48 919
15.5 880
15.52 809
15.54 866
15.56 890
15.58 912
15.6 887
15.62 847
15.64 883
15.66 919
15.68 932
15.7 905
15.72 937
15.74 938
15.76 883
15.78 901
15.8 902
15.82 950
15.84 954
15.86 969
15.88 929
15.9 897
15.92 903
15.94 844
15.96 921
15.98 924
16 932
16.02 946
16.04 976
16.06 949
16.08 905
16.1 931
16.12 954
16.14 893
16.16 902
16.18 983
16.2 1035
16.22 942
16.24 951
16.26 981
16.28 942
16.3 1009
16.32 968
16.34 1022
16.36 969
16.38 1003
16.4 1000
16.42 982
16.44 956
16.46 1018
16.48 1028
16.5 1010
16.52 972
16.54 955
16.56 987
16.58 1018
16.6 1006
16.62 995
16.64 1000
16.66 1046
16.68 1001
16.7 1022
16.72 1004
16.74 1003
16.76 1036
16.78 1037
16.8 993
16.82 1021
16.84 1052
16.86 1119
16.88 1100
16.9 1097
16.92 972
16.94 1025
16.96 981
16.98 1022
17 1083
17.02 1080
17.04 1128
17.06 1122
17.08 1128
17.1 1072
17.12 1068
17.14 1143
17.16 1122
17.18 1131
17.2 1131
17.22 1101
17.24 1139
17.26 1153
17.28 1123
17.3 1113
17.32 1119
17.34 1102
17.36 1086
17.38 1145
17.4 1151
17.42 1116
17.44 1187
17.46 1156
17.48 1155
17.5 1105
17.52 1161
17.54 1157
17.56 1146
17.58 1158
17.6 1215
17.62 1173
17.64 1147
17.66 1180
17.68 1152
17.7 1193
17.72 1231
17.74 1220
17.76 1170
17.78 1235
17.8 1208
17.82 1197
17.84 1223
17.86 1196
17.88 1224
17.9 1189
17.92 1182
17.94 1255
17.96 1257
17.98 1279
18 1249
18.02 1238
18.04 1250
18.06 1249
18.08 1327
18.1 1297
18.12 1277
18.14 1328
18.16 1266
18.18 1274
18.2 1355
18.22 1266
18.24 1339
18.26 1266
18.28 1346
18.3 1257
18.32 1291
18.34 1332
18.36 1382
18.38 1326
18.4 1268
18.42 1315
18.44 1374
18.46 1310
18.48 1292
18.5 1344
18.52 1327
18.54 1366
18.56 1410
18.58 1347
18.6 1405
18.62 1383
18.64 1437
18.66 1350
18.68 1369
18.7 1412
18.72 1418
18.74 1366
18.76 1378
18.78 1400
18.8 1411
18.82 1365
18.84 1366
18.86 1380
18.88 1406
18.9 1440
18.92 1420
18.94 1413
18.96 1387
18.98 1504
19 1425
19.02 1522
19.04 1485
19.06 1469
19.08 1437
19.1 1458
19.12 1456
19.14 1490
19.16 1487
19.18 1473
19.2 1465
19.22 1533
19.24 1530
19.26 1514
19.28 1522
19.3 1562
19.32 1470
19.34 1571
19.36 1533
19.38 1530
19.4 1552
19.42 1487
19.44 1529
19.46 1576
19.48 1550
19.5 1497
19.52 1565
19.54 1585
19.56 1620
19.58 1581
19.6 1620
19.62 1565
19.64 1646
19.66 1565
19.68 1563
19.7 1665
19.72 1645
19.74 1602
19.76 1668
19.78 1620
19.8 1664
19.82 1725
19.84 1701
19.86 1655
19.88 1649
19.9 1688
19.92 1690
19.94 1697
19.96 1601
19.98 1674
20 1646
20.02 1589
20.04 1603
20.06 1618
20.08 1607
20.1 1583
20.12 1575
20.14 1649
20.16 1624
20.18 1607
20.2 1632
20.22 1640
20.24 1614
20.26 1638
20.28 1575
20.3 1608
20.32 1662
20.34 1626
20.36 1565
20.38 1603
20.4 1684
20.42 1634
20.44 1605
20.46 1611
20.48 1621
20.5 1589
20.52 1664
20.54 1601
20.56 1672
20.58 1684
20.6 1656
20.62 1604
20.64 1627
20.66 1708
20.68 1639
20.7 1621
20.72 1669
20.74 1612
20.76 1667
20.78 1588
20.8 1646
20.82 1710
20.84 1687
20.86 1616
20.88 1635
20.9 1684
20.92 1649
20.94 1642
20.96 1760
20.98 1703
21 1613
21.02 1655
21.04 1655
21.06 1684
21.08 1674
21.1 1676
21.12 1640
21.14 1647
21.16 1579
21.18 1680
21.2 1587
21.22 1744
21.24 1748
21.26 1661
21.28 1705
21.3 1687
21.32 1592
21.34 1659
21.36 1620
21.38 1635
21.4 1651
21.42 1568
21.44 1652
21.46 1699
21.48 1618
21.5 1659
21.52 1683
21.54 1670
21.56 1662
21.58 1629
21.6 1701
21.62 1672
21.64 1668
21.66 1694
21.68 1638
21.7 1654
21.72 1739
21.74 1675
21.76 1687
21.78 1669
21.8 1613
21.82 1656
21.84 1657
21.86 1659
21.88 1665
21.9 1652
21.92 1718
21.94 1682
21.96 1703
21.98 1601
22 1618
22.02 1646
22.04 1627
22.06 1638
22.08 1623
22.1 1582
22.12 1620
22.14 1584
22.16 1611
22.18 1610
22.2 1603
22.22 1601
22.24 1672
22.26 1580
22.28 1614
22.3 1606
22.32 1642
22.34 1608
22.36 1667
22.38 1601
22.4 1629
22.42 1588
22.44 1580
22.46 1577
22.48 1521
22.5 1584
22.52 1484
22.54 1571
22.56 1590
22.58 1636
22.6 1525
22.62 1570
22.64 1595
22.66 1516
22.68 1554
22.7 1492
22.72 1578
22.74 1548
22.76 1566
22.78 1520
22.8 1539
22.82 1499
22.84 1536
22.86 1548
22.88 1494
22.9 1515
22.92 1491
22.94 1549
22.96 1509
22.98 1620
23 1555
23.02 1542
23.04 1555
23.06 1468
23.08 1481
23.1 1474
23.12 1519
23.14 1496
23.16 1470
23.18 1421
23.2 1487
23.22 1439
23.24 1465
23.26 1481
23.28 1486
23.3 1519
23.32 1442
23.34 1516
23.36 1489
23.38 1484
23.4 1477
23.42 1467
23.44 1400
23.46 1363
23.48 1448
23.5 1428
23.52 1413
23.54 1412
23.56 1443
23.58 1553
23.6 1462
23.62 1464
23.64 1528
23.66 1489
23.68 1474
23.7 1514
23.72 1495
23.74 1460
23.76 1508
23.78 1488
23.8 1566
23.82 1488
23.84 1424
23.86 1504
23.88 1450
23.9 1433
23.92 1379
23.94 1450
23.96 1380
23.98 1376
24 1416
24.02 1403
24.04 1330
24.06 1435
24.08 1390
24.1 1348
24.12 1340
24.14 1354
24.16 1355
24.18 1348
24.2 1367
24.22 1364
24.24 1322
24.26 1371
24.28 1340
24.3 1303
24.32 1357
24.34 1386
24.36 1366
24.38 1336
24.4 1351
24.42 1298
24.44 1343
24.46 1332
24.48 1316
24.5 1308
24.52 1292
24.54 1314
24.56 1330
24.58 1302
24.6 1332
24.62 1236
24.64 1293
24.66 1313
24.68 1294
24.7 1322
24.72 1343
24.74 1412
24.76 1283
24.78 1296
24.8 1331
24.82 1310
24.84 1311
24.86 1272
24.88 1256
24.9 1326
24.92 1238
24.94 1275
24.96 1265
24.98 1245
25 1261
25.02 1240
25.04 1220
25.06 1208
25.08 1240
25.1 1206
25.12 1286
25.14 1280
25.16 1249
25.18 1157
25.2 1233
25.22 1238
25.24 1178
25.26 1201
25.28 1253
25.3 1234
25.32 1187
25.34 1180
25.36 1191
25.38 1268
25.4 1268
25.42 1256
25.44 1279
25.46 1285
25.48 1268
25.5 1332
25.52 1298
25.54 1313
25.56 1271
25.58 1231
25.6 1251
25.62 1199
25.64 1220
25.66 1288
25.68 1231
25.7 1241
25.72 1181
25.74 1187
25.76 1129
25.78 1193
25.8 1150
25.82 1173
25.84 1118
25.86 1239
25.88 1167
25.9 1130
25.92 1147
25.94 1100
25.96 1103
25.98 1182
26 1083
26.02 1143
26.04 1153
26.06 1159
26.08 1129
26.1 1134
26.12 1132
26.14 1125
26.16 1096
26.18 1180
26.2 1134
26.22 1120
26.24 1076
26.26 1098
26.28 1081
26.3 1131
26.32 1082
26.34 1121
26.36 1052
26.38 1155
26.4 1170
26.42 1127
26.44 1113
26.46 1136
26.48 1138
26.5 1170
26.52 1165
26.54 1126
26.56 1120
26.58 1126
26.6 1102
26.62 1159
26.64 1135
26.66 1148
26.68 1153
26.7 1108
26.72 1123
26.74 1078
26.76 1023
26.78 1063
26.8 1041
26.82 1094
26.84 1049
26.86 1028
26.88 1003
26.9 1086
26.92 1078
26.94 1067
26.96 1044
26.98 1038
27 976
27.02 1061
27.04 1065
27.06 1078
27.08 1071
27.1 1090
27.12 1065
27.14 1029
27.16 1080
27.18 1017
27.2 1074
27.22 1084
27.24 1042
27.26 983
27.28 1082
27.3 1065
27.32 1090
27.34 1058
27.36 1045
27.38 1101
27.4 1122
27.42 1106
27.44 1060
27.46 1048
27.48 1044
27.5 1084
27.52 1093
27.54 1040
27.56 1057
27.58 1067
27.6 1029
27.62 1005
27.64 1033
27.66 1011
27.68 1093
27.7 984
27.72 933
27.74 1026
27.76 1008
27.78 999
27.8 1033
27.82 1013
27.84 959
27.86 1029
27.88 986
27.9 1078
27.92 937
27.94 991
27.96 977
27.98 1002
28 919
28.02 1014
28.04 975
28.06 1026
28.08 1022
28.1 1007
28.12 1020
28.14 1001
28.16 979
28.18 1064
28.2 1036
28.22 1067
28.24 1007
28.26 1060
28.28 1007
28.3 990
28.32 1011
28.34 995
28.36 952
28.38 968
28.4 902
28.42 1021
28.44 998
28.46 952
28.48 949
28.5 975
28.52 952
28.54 993
28.56 1018
28.58 997
28.6 1005
28.62 962
28.64 1042
28.66 1006
28.68 999
28.7 955
28.72 986
28.74 988
28.76 1060
28.78 1030
28.8 1050
28.82 1008
28.84 1009
28.86 1026
28.88 991
28.9 1021
28.92 1031
28.94 997
28.96 1020
28.98 1013
29 980
29.02 1004
29.04 1047
29.06 1019
29.08 1049
29.1 1011
29.12 1065
29.14 1025
29.16 1007
29.18 980
29.2 958
29.22 998
29.24 975
29.26 918
29.28 923
29.3 969
29.32 979
29.34 905
29.36 950
29.38 900
29.4 946
29.42 936
29.44 925
29.46 915
29.48 891
29.5 928
29.52 917
29.54 987
29.56 933
29.58 965
29.6 928
29.62 897
29.64 966
29.66 959
29.68 964
29.7 935
29.72 908
29.74 935
29.76 980
29.78 933
29.8 957
29.82 963
29.84 893
29.86 929
29.88 908
29.9 968
29.92 930
29.94 910
29.96 946
29.98 929
30 896