File: xrd-UiO-67/pxrddata/2-17.ASC
2.8 5356
2.82 4940
2.84 4448
2.86 4097
2.88 3808
2.9 3380
2.92 3125
2.94 2934
2.96 2646
2.98 2408
3 2287
3.02 2122
3.04 1940
3.06 1833
3.08 1773
3.1 1638
3.12 1593
3.14 1563
3.16 1559
3.18 1536
3.2 1535
3.22 1479
3.24 1507
3.26 1495
3.28 1432
3.3 1399
3.32 1443
3.34 1389
3.36 1344
3.38 1389
3.4 1402
3.42 1312
3.44 1322
3.46 1288
3.48 1280
3.5 1311
3.52 1309
3.54 1296
3.56 1292
3.58 1260
3.6 1252
3.62 1324
3.64 1222
3.66 1254
3.68 1184
3.7 1170
3.72 1191
3.74 1212
3.76 1215
3.78 1258
3.8 1210
3.82 1154
3.84 1118
3.86 1182
3.88 1147
3.9 1166
3.92 1162
3.94 1136
3.96 1177
3.98 1181
4 1141
4.02 1122
4.04 1142
4.06 1171
4.08 1136
4.1 1100
4.12 1114
4.14 1158
4.16 1114
4.18 1121
4.2 1053
4.22 1144
4.24 1094
4.26 1178
4.28 1106
4.3 1089
4.32 1132
4.34 1093
4.36 1111
4.38 1122
4.4 1118
4.42 1067
4.44 1098
4.46 1091
4.48 1137
4.5 1142
4.52 1157
4.54 1108
4.56 1146
4.58 1134
4.6 1156
4.62 1124
4.64 1135
4.66 1125
4.68 1186
4.7 1149
4.72 1162
4.74 1108
4.76 1129
4.78 1214
4.8 1140
4.82 1163
4.84 1208
4.86 1207
4.88 1166
4.9 1186
4.92 1241
4.94 1205
4.96 1211
4.98 1213
5 1141
5.02 1248
5.04 1235
5.06 1213
5.08 1199
5.1 1249
5.12 1254
5.14 1234
5.16 1221
5.18 1240
5.2 1250
5.22 1264
5.24 1304
5.26 1335
5.28 1283
5.3 1323
5.32 1326
5.34 1322
5.36 1281
5.38 1327
5.4 1399
5.42 1419
5.44 1415
5.46 1493
5.48 1476
5.5 1430
5.52 1469
5.54 1605
5.56 1568
5.58 1627
5.6 1703
5.62 1796
5.64 1786
5.66 1903
5.68 1999
5.7 2224
5.72 2246
5.74 2567
5.76 2939
5.78 3462
5.8 3273
5.82 2368
5.84 1684
5.86 1333
5.88 1188
5.9 1121
5.92 1211
5.94 1217
5.96 1163
5.98 1139
6 1175
6.02 1195
6.04 1151
6.06 1137
6.08 1142
6.1 1166
6.12 1133
6.14 1196
6.16 1151
6.18 1103
6.2 1134
6.22 1080
6.24 1134
6.26 1112
6.28 1129
6.3 1125
6.32 1210
6.34 1208
6.36 1189
6.38 1166
6.4 1188
6.42 1225
6.44 1246
6.46 1290
6.48 1339
6.5 1298
6.52 1316
6.54 1382
6.56 1486
6.58 1497
6.6 1565
6.62 1790
6.64 2101
6.66 2334
6.68 2381
6.7 1727
6.72 1251
6.74 1068
6.76 996
6.78 993
6.8 964
6.82 1032
6.84 1054
6.86 966
6.88 984
6.9 946
6.92 941
6.94 1018
6.96 1000
6.98 969
7 969
7.02 998
7.04 922
7.06 942
7.08 1006
7.1 957
7.12 967
7.14 960
7.16 1028
7.18 945
7.2 956
7.22 922
7.24 955
7.26 1012
7.28 955
7.3 923
7.32 932
7.34 1005
7.36 909
7.38 974
7.4 921
7.42 930
7.44 962
7.46 1057
7.48 946
7.5 938
7.52 877
7.54 961
7.56 958
7.58 1012
7.6 976
7.62 949
7.64 916
7.66 959
7.68 1012
7.7 903
7.72 945
7.74 923
7.76 990
7.78 978
7.8 1003
7.82 931
7.84 920
7.86 945
7.88 914
7.9 984
7.92 942
7.94 957
7.96 942
7.98 960
8 955
8.02 943
8.04 933
8.06 932
8.08 974
8.1 919
8.12 967
8.14 964
8.16 980
8.18 993
8.2 940
8.22 953
8.24 946
8.26 981
8.28 940
8.3 938
8.32 928
8.34 971
8.36 973
8.38 973
8.4 971
8.42 914
8.44 977
8.46 961
8.48 958
8.5 947
8.52 937
8.54 985
8.56 990
8.58 983
8.6 933
8.62 1002
8.64 969
8.66 1021
8.68 999
8.7 1006
8.72 985
8.74 949
8.76 1001
8.78 1015
8.8 951
8.82 948
8.84 975
8.86 1047
8.88 1046
8.9 1026
8.92 1018
8.94 1035
8.96 917
8.98 976
9 1039
9.02 1083
9.04 1107
9.06 1107
9.08 1088
9.1 1068
9.12 1066
9.14 1136
9.16 1129
9.18 1201
9.2 1175
9.22 1239
9.24 1325
9.26 1320
9.28 1470
9.3 1548
9.32 1678
9.34 1812
9.36 2138
9.38 2327
9.4 2218
9.42 1946
9.44 1468
9.46 1220
9.48 1090
9.5 1109
9.52 1031
9.54 1041
9.56 1029
9.58 1065
9.6 996
9.62 1038
9.64 1058
9.66 1001
9.68 1031
9.7 1028
9.72 970
9.74 973
9.76 1066
9.78 1028
9.8 1007
9.82 1013
9.84 998
9.86 1056
9.88 986
9.9 1054
9.92 1023
9.94 1012
9.96 1067
9.98 1050
10 1026
10.02 1022
10.04 1020
10.06 983
10.08 1005
10.1 1034
10.12 1053
10.14 947
10.16 1013
10.18 1050
10.2 1062
10.22 1013
10.24 1033
10.26 1065
10.28 1043
10.3 1007
10.32 1053
10.34 1031
10.36 1011
10.38 1072
10.4 992
10.42 1091
10.44 1046
10.46 1043
10.48 1009
10.5 1024
10.52 1090
10.54 1070
10.56 1108
10.58 1041
10.6 1123
10.62 1144
10.64 1085
10.66 1135
10.68 1124
10.7 1100
10.72 1134
10.74 1156
10.76 1268
10.78 1210
10.8 1262
10.82 1265
10.84 1437
10.86 1360
10.88 1407
10.9 1458
10.92 1552
10.94 1737
10.96 1963
10.98 2241
11 2387
11.02 2207
11.04 1772
11.06 1369
11.08 1218
11.1 1191
11.12 1136
11.14 1083
11.16 1143
11.18 1130
11.2 1144
11.22 1148
11.24 1160
11.26 1153
11.28 1126
11.3 1145
11.32 1230
11.34 1209
11.36 1259
11.38 1296
11.4 1333
11.42 1348
11.44 1496
11.46 1569
11.48 1707
11.5 1702
11.52 1521
11.54 1308
11.56 1188
11.58 1131
11.6 1097
11.62 1094
11.64 1082
11.66 1074
11.68 1106
11.7 1130
11.72 1079
11.74 1052
11.76 1101
11.78 1124
11.8 1113
11.82 1086
11.84 1110
11.86 1094
11.88 1085
11.9 1127
11.92 1150
11.94 1145
11.96 1113
11.98 1102
12 1116
12.02 1130
12.04 1143
12.06 1094
12.08 1123
12.1 1097
12.12 1112
12.14 1124
12.16 1150
12.18 1097
12.2 1115
12.22 1163
12.24 1115
12.26 1120
12.28 1187
12.3 1162
12.32 1146
12.34 1152
12.36 1151
12.38 1143
12.4 1133
12.42 1125
12.44 1174
12.46 1214
12.48 1189
12.5 1186
12.52 1173
12.54 1152
12.56 1130
12.58 1124
12.6 1162
12.62 1152
12.64 1169
12.66 1185
12.68 1191
12.7 1164
12.72 1229
12.74 1199
12.76 1211
12.78 1162
12.8 1191
12.82 1177
12.84 1189
12.86 1206
12.88 1185
12.9 1176
12.92 1162
12.94 1235
12.96 1214
12.98 1274
13 1201
13.02 1260
13.04 1234
13.06 1211
13.08 1278
13.1 1276
13.12 1259
13.14 1246
13.16 1319
13.18 1306
13.2 1313
13.22 1410
13.24 1374
13.26 1482
13.28 1426
13.3 1365
13.32 1247
13.34 1278
13.36 1275
13.38 1287
13.4 1325
13.42 1217
13.44 1258
13.46 1284
13.48 1250
13.5 1337
13.52 1266
13.54 1274
13.56 1298
13.58 1274
13.6 1216
13.62 1313
13.64 1310
13.66 1286
13.68 1280
13.7 1342
13.72 1214
13.74 1247
13.76 1297
13.78 1320
13.8 1340
13.82 1357
13.84 1319
13.86 1298
13.88 1357
13.9 1371
13.92 1316
13.94 1335
13.96 1323
13.98 1340
14 1324
14.02 1412
14.04 1323
14.06 1374
14.08 1353
14.1 1376
14.12 1373
14.14 1369
14.16 1445
14.18 1358
14.2 1418
14.22 1436
14.24 1428
14.26 1414
14.28 1406
14.3 1469
14.32 1408
14.34 1482
14.36 1440
14.38 1444
14.4 1573
14.42 1603
14.44 1616
14.46 1601
14.48 1585
14.5 1535
14.52 1396
14.54 1451
14.56 1464
14.58 1446
14.6 1471
14.62 1455
14.64 1481
14.66 1499
14.68 1497
14.7 1504
14.72 1467
14.74 1517
14.76 1456
14.78 1469
14.8 1443
14.82 1530
14.84 1562
14.86 1453
14.88 1475
14.9 1463
14.92 1484
14.94 1575
14.96 1465
14.98 1457
15 1458
15.02 1523
15.04 1497
15.06 1488
15.08 1503
15.1 1551
15.12 1528
15.14 1492
15.16 1589
15.18 1504
15.2 1530
15.22 1611
15.24 1539
15.26 1599
15.28 1656
15.3 1597
15.32 1503
15.34 1548
15.36 1462
15.38 1580
15.4 1548
15.42 1604
15.44 1683
15.46 1535
15.48 1668
15.5 1590
15.52 1683
15.54 1570
15.56 1660
15.58 1549
15.6 1707
15.62 1613
15.64 1681
15.66 1602
15.68 1662
15.7 1678
15.72 1635
15.74 1656
15.76 1676
15.78 1703
15.8 1697
15.82 1598
15.84 1681
15.86 1740
15.88 1644
15.9 1690
15.92 1701
15.94 1732
15.96 1715
15.98 1666
16 1742
16.02 1756
16.04 1777
16.06 1751
16.08 1771
16.1 1716
16.12 1778
16.14 1729
16.16 1715
16.18 1782
16.2 1789
16.22 1828
16.24 1854
16.26 1826
16.28 1807
16.3 1779
16.32 1851
16.34 1855
16.36 1898
16.38 1813
16.4 1868
16.42 1803
16.44 1783
16.46 1852
16.48 1882
16.5 1853
16.52 1934
16.54 1816
16.56 1870
16.58 1936
16.6 1923
16.62 1890
16.64 1876
16.66 1993
16.68 1930
16.7 1919
16.72 1945
16.74 1907
16.76 1914
16.78 1941
16.8 1912
16.82 1883
16.84 1959
16.86 1952
16.88 1934
16.9 1964
16.92 1956
16.94 2016
16.96 2040
16.98 2053
17 2081
17.02 2126
17.04 2030
17.06 2018
17.08 2026
17.1 2148
17.12 2106
17.14 2109
17.16 2182
17.18 2225
17.2 2243
17.22 2246
17.24 2247
17.26 2169
17.28 2101
17.3 2101
17.32 2081
17.34 2174
17.36 2048
17.38 2123
17.4 2103
17.42 2129
17.44 2124
17.46 2116
17.48 2219
17.5 2211
17.52 2198
17.54 2189
17.56 2216
17.58 2200
17.6 2229
17.62 2203
17.64 2256
17.66 2184
17.68 2278
17.7 2217
17.72 2238
17.74 2337
17.76 2293
17.78 2277
17.8 2281
17.82 2321
17.84 2353
17.86 2267
17.88 2242
17.9 2358
17.92 2287
17.94 2350
17.96 2382
17.98 2353
18 2339
18.02 2466
18.04 2346
18.06 2424
18.08 2362
18.1 2382
18.12 2472
18.14 2333
18.16 2367
18.18 2354
18.2 2408
18.22 2411
18.24 2374
18.26 2493
18.28 2418
18.3 2527
18.32 2451
18.34 2468
18.36 2432
18.38 2489
18.4 2504
18.42 2428
18.44 2452
18.46 2560
18.48 2561
18.5 2568
18.52 2526
18.54 2519
18.56 2492
18.58 2566
18.6 2629
18.62 2504
18.64 2468
18.66 2536
18.68 2509
18.7 2514
18.72 2594
18.74 2530
18.76 2597
18.78 2602
18.8 2567
18.82 2588
18.84 2599
18.86 2633
18.88 2622
18.9 2635
18.92 2697
18.94 2734
18.96 2586
18.98 2571
19 2664
19.02 2609
19.04 2680
19.06 2667
19.08 2640
19.1 2726
19.12 2709
19.14 2734
19.16 2736
19.18 2765
19.2 2791
19.22 2814
19.24 2746
19.26 2686
19.28 2773
19.3 2774
19.32 2776
19.34 2765
19.36 2827
19.38 2836
19.4 2752
19.42 2821
19.44 2873
19.46 2858
19.48 2850
19.5 2932
19.52 2979
19.54 2987
19.56 2992
19.58 3138
19.6 3444
19.62 3409
19.64 3430
19.66 3266
19.68 3288
19.7 3055
19.72 2884
19.74 3017
19.76 2999
19.78 2900
19.8 2952
19.82 3217
19.84 3293
19.86 3395
19.88 3663
19.9 3832
19.92 3755
19.94 3542
19.96 3194
19.98 2978
20 2939
20.02 2874
20.04 2874
20.06 2893
20.08 2870
20.1 2935
20.12 2789
20.14 2867
20.16 2813
20.18 2929
20.2 2899
20.22 2845
20.24 2906
20.26 2824
20.28 2901
20.3 2836
20.32 2903
20.34 2879
20.36 2899
20.38 2881
20.4 2761
20.42 2850
20.44 2883
20.46 2884
20.48 2793
20.5 2837
20.52 2996
20.54 2914
20.56 2892
20.58 2823
20.6 2962
20.62 2876
20.64 2890
20.66 2820
20.68 2817
20.7 2775
20.72 2879
20.74 2968
20.76 2963
20.78 2871
20.8 2930
20.82 2847
20.84 2854
20.86 2875
20.88 2882
20.9 2884
20.92 2800
20.94 2842
20.96 2858
20.98 2866
21 2867
21.02 2924
21.04 2890
21.06 2907
21.08 2854
21.1 2847
21.12 2841
21.14 2784
21.16 2793
21.18 2859
21.2 2704
21.22 2878
21.24 2809
21.26 2782
21.28 2920
21.3 2845
21.32 2851
21.34 2839
21.36 2752
21.38 2864
21.4 2809
21.42 2812
21.44 2722
21.46 2869
21.48 2827
21.5 2881
21.52 2816
21.54 2886
21.56 2780
21.58 2803
21.6 2791
21.62 2779
21.64 2931
21.66 2937
21.68 2714
21.7 2818
21.72 2912
21.74 3058
21.76 3042
21.78 3069
21.8 2930
21.82 2921
21.84 2809
21.86 2826
21.88 2681
21.9 2763
21.92 2743
21.94 2709
21.96 2719
21.98 2728
22 2825
22.02 2715
22.04 2727
22.06 2711
22.08 2789
22.1 2709
22.12 2677
22.14 2907
22.16 2731
22.18 2776
22.2 2696
22.22 2785
22.24 2743
22.26 2679
22.28 2693
22.3 2814
22.32 2807
22.34 2659
22.36 2742
22.38 2711
22.4 2649
22.42 2716
22.44 2748
22.46 2678
22.48 2665
22.5 2559
22.52 2691
22.54 2674
22.56 2651
22.58 2659
22.6 2618
22.62 2631
22.64 2678
22.66 2654
22.68 2605
22.7 2672
22.72 2610
22.74 2545
22.76 2669
22.78 2659
22.8 2685
22.82 2684
22.84 2627
22.86 2629
22.88 2598
22.9 2552
22.92 2522
22.94 2530
22.96 2587
22.98 2644
23 2664
23.02 2614
23.04 2594
23.06 2717
23.08 2611
23.1 2507
23.12 2601
23.14 2606
23.16 2565
23.18 2563
23.2 2476
23.22 2514
23.24 2479
23.26 2504
23.28 2577
23.3 2546
23.32 2494
23.34 2497
23.36 2548
23.38 2540
23.4 2543
23.42 2518
23.44 2468
23.46 2536
23.48 2513
23.5 2482
23.52 2485
23.54 2563
23.56 2519
23.58 2539
23.6 2528
23.62 2547
23.64 2656
23.66 2793
23.68 2994
23.7 3104
23.72 3214
23.74 3011
23.76 3020
23.78 2797
23.8 2733
23.82 2465
23.84 2412
23.86 2541
23.88 2487
23.9 2395
23.92 2434
23.94 2541
23.96 2569
23.98 2448
24 2442
24.02 2475
24.04 2490
24.06 2420
24.08 2316
24.1 2390
24.12 2329
24.14 2310
24.16 2391
24.18 2400
24.2 2321
24.22 2288
24.24 2385
24.26 2248
24.28 2264
24.3 2312
24.32 2305
24.34 2347
24.36 2385
24.38 2299
24.4 2285
24.42 2330
24.44 2301
24.46 2282
24.48 2278
24.5 2333
24.52 2222
24.54 2285
24.56 2381
24.58 2249
24.6 2365
24.62 2270
24.64 2323
24.66 2239
24.68 2404
24.7 2313
24.72 2300
24.74 2286
24.76 2413
24.78 2441
24.8 2417
24.82 2492
24.84 2631
24.86 2735
24.88 2695
24.9 2648
24.92 2474
24.94 2429
24.96 2387
24.98 2253
25 2181
25.02 2279
25.04 2128
25.06 2308
25.08 2263
25.1 2195
25.12 2197
25.14 2138
25.16 2185
25.18 2166
25.2 2256
25.22 2165
25.24 2212
25.26 2185
25.28 2164
25.3 2216
25.32 2214
25.34 2257
25.36 2298
25.38 2165
25.4 2253
25.42 2196
25.44 2231
25.46 2371
25.48 2474
25.5 2668
25.52 2836
25.54 2962
25.56 2659
25.58 2671
25.6 2524
25.62 2405
25.64 2249
25.66 2201
25.68 2203
25.7 2115
25.72 2041
25.74 2075
25.76 2118
25.78 2134
25.8 2006
25.82 2067
25.84 2137
25.86 2059
25.88 2117
25.9 2135
25.92 2021
25.94 2161
25.96 2080
25.98 2034
26 2107
26.02 2035
26.04 2041
26.06 2064
26.08 2082
26.1 2042
26.12 2031
26.14 2093
26.16 2075
26.18 2106
26.2 2087
26.22 2140
26.24 2026
26.26 2063
26.28 2046
26.3 2045
26.32 2047
26.34 2085
26.36 1975
26.38 2023
26.4 2049
26.42 2013
26.44 2118
26.46 2054
26.48 2058
26.5 2094
26.52 2116
26.54 2205
26.56 2236
26.58 2335
26.6 2490
26.62 2562
26.64 2379
26.66 2292
26.68 2299
26.7 2107
26.72 2056
26.74 2025
26.76 2000
26.78 1942
26.8 1939
26.82 1937
26.84 1989
26.86 2022
26.88 1963
26.9 1995
26.92 2039
26.94 1967
26.96 2042
26.98 1942
27 1916
27.02 1999
27.04 2087
27.06 1965
27.08 1994
27.1 1963
27.12 1962
27.14 1905
27.16 1850
27.18 1974
27.2 1971
27.22 1981
27.24 2070
27.26 1999
27.28 1976
27.3 2029
27.32 1989
27.34 2079
27.36 2074
27.38 2247
27.4 2269
27.42 2486
27.44 2546
27.46 2465
27.48 2294
27.5 2248
27.52 2129
27.54 2105
27.56 1932
27.58 1949
27.6 1938
27.62 1997
27.64 1935
27.66 1955
27.68 1906
27.7 1897
27.72 1896
27.74 1879
27.76 1950
27.78 1896
27.8 1870
27.82 1896
27.84 1972
27.86 1919
27.88 1934
27.9 1894
27.92 1883
27.94 1797
27.96 1907
27.98 1897
28 1803
28.02 1864
28.04 1863
28.06 1875
28.08 1900
28.1 1889
28.12 1935
28.14 1947
28.16 1901
28.18 1830
28.2 1962
28.22 2064
28.24 2075
28.26 2099
28.28 2075
28.3 2013
28.32 1949
28.34 1962
28.36 1904
28.38 1913
28.4 1890
28.42 1859
28.44 1924
28.46 1906
28.48 1781
28.5 1856
28.52 1910
28.54 1856
28.56 1805
28.58 1807
28.6 1891
28.62 1917
28.64 1860
28.66 1829
28.68 1910
28.7 1924
28.72 1918
28.74 1977
28.76 1950
28.78 2003
28.8 2124
28.82 2152
28.84 2331
28.86 2317
28.88 2187
28.9 2116
28.92 2050
28.94 2129
28.96 2058
28.98 2054
29 2063
29.02 2169
29.04 2315
29.06 2154
29.08 2114
29.1 2039
29.12 2117
29.14 1916
29.16 1917
29.18 1919
29.2 1759
29.22 1811
29.24 1843
29.26 1789
29.28 1774
29.3 1781
29.32 1715
29.34 1738
29.36 1752
29.38 1767
29.4 1785
29.42 1813
29.44 1910
29.46 1778
29.48 1784
29.5 1820
29.52 1814
29.54 1763
29.56 1767
29.58 1729
29.6 1754
29.62 1805
29.64 1796
29.66 1821
29.68 1810
29.7 1676
29.72 1805
29.74 1740
29.76 1814
29.78 1704
29.8 1717
29.82 1845
29.84 1737
29.86 1783
29.88 1732
29.9 1782
29.92 1776
29.94 1731
29.96 1794
29.98 1810
30 1769