File: xrd-UiO-67/pxrddata/2-2.ASC
2.8 5617
2.82 4908
2.84 4417
2.86 4022
2.88 3716
2.9 3373
2.92 3035
2.94 2869
2.96 2522
2.98 2398
3 2274
3.02 2018
3.04 1911
3.06 1776
3.08 1701
3.1 1556
3.12 1505
3.14 1518
3.16 1469
3.18 1427
3.2 1475
3.22 1389
3.24 1333
3.26 1385
3.28 1333
3.3 1407
3.32 1312
3.34 1333
3.36 1354
3.38 1221
3.4 1271
3.42 1237
3.44 1238
3.46 1257
3.48 1157
3.5 1246
3.52 1243
3.54 1302
3.56 1250
3.58 1143
3.6 1173
3.62 1163
3.64 1151
3.66 1146
3.68 1150
3.7 1126
3.72 1131
3.74 1110
3.76 1058
3.78 1017
3.8 1043
3.82 1069
3.84 1031
3.86 1031
3.88 1002
3.9 1038
3.92 988
3.94 958
3.96 961
3.98 1004
4 983
4.02 990
4.04 921
4.06 955
4.08 916
4.1 920
4.12 915
4.14 918
4.16 914
4.18 903
4.2 953
4.22 936
4.24 918
4.26 882
4.28 879
4.3 953
4.32 896
4.34 857
4.36 880
4.38 823
4.4 809
4.42 884
4.44 856
4.46 889
4.48 910
4.5 819
4.52 825
4.54 856
4.56 811
4.58 820
4.6 882
4.62 847
4.64 847
4.66 817
4.68 852
4.7 897
4.72 811
4.74 788
4.76 789
4.78 841
4.8 826
4.82 846
4.84 803
4.86 863
4.88 834
4.9 846
4.92 817
4.94 804
4.96 804
4.98 793
5 799
5.02 774
5.04 850
5.06 802
5.08 764
5.1 772
5.12 796
5.14 779
5.16 816
5.18 855
5.2 831
5.22 839
5.24 811
5.26 811
5.28 903
5.3 848
5.32 868
5.34 840
5.36 833
5.38 865
5.4 863
5.42 876
5.44 929
5.46 938
5.48 880
5.5 976
5.52 968
5.54 987
5.56 1063
5.58 1110
5.6 1083
5.62 1073
5.64 1134
5.66 1285
5.68 1332
5.7 1458
5.72 1522
5.74 1650
5.76 1648
5.78 1638
5.8 1596
5.82 1650
5.84 1652
5.86 1671
5.88 1538
5.9 1292
5.92 919
5.94 786
5.96 682
5.98 751
6 736
6.02 702
6.04 705
6.06 688
6.08 706
6.1 657
6.12 693
6.14 710
6.16 652
6.18 649
6.2 697
6.22 687
6.24 669
6.26 705
6.28 694
6.3 700
6.32 640
6.34 711
6.36 718
6.38 730
6.4 732
6.42 745
6.44 689
6.46 755
6.48 736
6.5 837
6.52 797
6.54 827
6.56 936
6.58 961
6.6 1019
6.62 1042
6.64 1012
6.66 993
6.68 1015
6.7 1125
6.72 1115
6.74 1054
6.76 1033
6.78 871
6.8 710
6.82 649
6.84 618
6.86 611
6.88 618
6.9 581
6.92 574
6.94 591
6.96 553
6.98 585
7 552
7.02 563
7.04 570
7.06 618
7.08 602
7.1 546
7.12 554
7.14 552
7.16 551
7.18 554
7.2 557
7.22 581
7.24 600
7.26 540
7.28 514
7.3 571
7.32 584
7.34 528
7.36 545
7.38 564
7.4 546
7.42 545
7.44 586
7.46 585
7.48 550
7.5 549
7.52 533
7.54 533
7.56 541
7.58 585
7.6 584
7.62 571
7.64 548
7.66 533
7.68 546
7.7 507
7.72 544
7.74 516
7.76 550
7.78 523
7.8 542
7.82 541
7.84 547
7.86 546
7.88 552
7.9 504
7.92 562
7.94 577
7.96 530
7.98 527
8 517
8.02 533
8.04 510
8.06 545
8.08 485
8.1 534
8.12 550
8.14 529
8.16 531
8.18 515
8.2 537
8.22 538
8.24 506
8.26 523
8.28 534
8.3 499
8.32 486
8.34 503
8.36 538
8.38 508
8.4 510
8.42 527
8.44 529
8.46 507
8.48 483
8.5 484
8.52 497
8.54 499
8.56 489
8.58 503
8.6 508
8.62 500
8.64 511
8.66 526
8.68 502
8.7 480
8.72 474
8.74 518
8.76 478
8.78 543
8.8 518
8.82 492
8.84 464
8.86 492
8.88 531
8.9 453
8.92 513
8.94 498
8.96 462
8.98 492
9 483
9.02 518
9.04 546
9.06 517
9.08 508
9.1 527
9.12 488
9.14 536
9.16 533
9.18 566
9.2 532
9.22 533
9.24 596
9.26 618
9.28 641
9.3 649
9.32 714
9.34 733
9.36 739
9.38 729
9.4 781
9.42 737
9.44 785
9.46 793
9.48 817
9.5 744
9.52 679
9.54 553
9.56 553
9.58 518
9.6 512
9.62 473
9.64 505
9.66 506
9.68 441
9.7 466
9.72 483
9.74 476
9.76 456
9.78 460
9.8 500
9.82 491
9.84 493
9.86 502
9.88 482
9.9 483
9.92 499
9.94 501
9.96 451
9.98 472
10 461
10.02 451
10.04 437
10.06 464
10.08 473
10.1 444
10.12 465
10.14 433
10.16 457
10.18 449
10.2 503
10.22 453
10.24 477
10.26 484
10.28 467
10.3 491
10.32 474
10.34 487
10.36 486
10.38 421
10.4 478
10.42 481
10.44 452
10.46 480
10.48 492
10.5 467
10.52 492
10.54 477
10.56 440
10.58 461
10.6 469
10.62 473
10.64 423
10.66 478
10.68 447
10.7 486
10.72 469
10.74 461
10.76 477
10.78 517
10.8 507
10.82 564
10.84 532
10.86 547
10.88 577
10.9 600
10.92 631
10.94 644
10.96 634
10.98 738
11 702
11.02 772
11.04 702
11.06 720
11.08 727
11.1 739
11.12 624
11.14 540
11.16 481
11.18 490
11.2 507
11.22 505
11.24 465
11.26 442
11.28 503
11.3 478
11.32 527
11.34 510
11.36 496
11.38 531
11.4 545
11.42 573
11.44 595
11.46 585
11.48 562
11.5 548
11.52 550
11.54 563
11.56 565
11.58 583
11.6 584
11.62 489
11.64 489
11.66 466
11.68 434
11.7 440
11.72 433
11.74 464
11.76 439
11.78 424
11.8 438
11.82 423
11.84 465
11.86 448
11.88 433
11.9 422
11.92 414
11.94 448
11.96 499
11.98 457
12 441
12.02 442
12.04 469
12.06 437
12.08 454
12.1 421
12.12 423
12.14 444
12.16 414
12.18 463
12.2 441
12.22 445
12.24 449
12.26 458
12.28 425
12.3 414
12.32 408
12.34 436
12.36 435
12.38 440
12.4 431
12.42 424
12.44 413
12.46 450
12.48 428
12.5 459
12.52 453
12.54 420
12.56 469
12.58 435
12.6 487
12.62 381
12.64 452
12.66 423
12.68 411
12.7 438
12.72 391
12.74 425
12.76 457
12.78 470
12.8 444
12.82 447
12.84 415
12.86 459
12.88 401
12.9 466
12.92 426
12.94 481
12.96 436
12.98 434
13 463
13.02 438
13.04 481
13.06 447
13.08 407
13.1 456
13.12 492
13.14 461
13.16 448
13.18 437
13.2 462
13.22 463
13.24 464
13.26 489
13.28 470
13.3 472
13.32 478
13.34 473
13.36 525
13.38 471
13.4 461
13.42 469
13.44 419
13.46 444
13.48 430
13.5 457
13.52 457
13.54 459
13.56 500
13.58 458
13.6 449
13.62 476
13.64 458
13.66 428
13.68 485
13.7 474
13.72 446
13.74 464
13.76 431
13.78 442
13.8 437
13.82 451
13.84 432
13.86 478
13.88 485
13.9 463
13.92 426
13.94 485
13.96 410
13.98 472
14 436
14.02 462
14.04 448
14.06 475
14.08 447
14.1 442
14.12 462
14.14 481
14.16 445
14.18 465
14.2 496
14.22 449
14.24 470
14.26 458
14.28 461
14.3 473
14.32 521
14.34 521
14.36 484
14.38 466
14.4 475
14.42 467
14.44 516
14.46 496
14.48 511
14.5 549
14.52 541
14.54 499
14.56 511
14.58 514
14.6 498
14.62 483
14.64 470
14.66 447
14.68 469
14.7 451
14.72 435
14.74 475
14.76 532
14.78 485
14.8 456
14.82 471
14.84 445
14.86 490
14.88 488
14.9 473
14.92 487
14.94 532
14.96 495
14.98 517
15 484
15.02 521
15.04 475
15.06 474
15.08 476
15.1 500
15.12 495
15.14 515
15.16 482
15.18 476
15.2 486
15.22 500
15.24 533
15.26 480
15.28 524
15.3 463
15.32 505
15.34 547
15.36 512
15.38 481
15.4 525
15.42 482
15.44 461
15.46 487
15.48 499
15.5 498
15.52 567
15.54 491
15.56 511
15.58 499
15.6 516
15.62 505
15.64 535
15.66 486
15.68 491
15.7 491
15.72 518
15.74 533
15.76 471
15.78 519
15.8 540
15.82 469
15.84 531
15.86 509
15.88 512
15.9 543
15.92 497
15.94 517
15.96 512
15.98 546
16 576
16.02 522
16.04 541
16.06 535
16.08 506
16.1 528
16.12 553
16.14 485
16.16 497
16.18 531
16.2 503
16.22 532
16.24 548
16.26 585
16.28 588
16.3 550
16.32 504
16.34 510
16.36 534
16.38 602
16.4 542
16.42 552
16.44 522
16.46 511
16.48 552
16.5 505
16.52 562
16.54 529
16.56 538
16.58 534
16.6 585
16.62 585
16.64 526
16.66 538
16.68 528
16.7 585
16.72 576
16.74 575
16.76 552
16.78 574
16.8 595
16.82 537
16.84 565
16.86 523
16.88 577
16.9 598
16.92 578
16.94 616
16.96 574
16.98 666
17 555
17.02 604
17.04 584
17.06 577
17.08 571
17.1 633
17.12 607
17.14 583
17.16 578
17.18 654
17.2 686
17.22 692
17.24 628
17.26 657
17.28 633
17.3 688
17.32 641
17.34 641
17.36 628
17.38 592
17.4 591
17.42 635
17.44 631
17.46 612
17.48 626
17.5 593
17.52 590
17.54 645
17.56 620
17.58 606
17.6 615
17.62 618
17.64 613
17.66 614
17.68 624
17.7 639
17.72 620
17.74 617
17.76 635
17.78 611
17.8 650
17.82 604
17.84 626
17.86 698
17.88 621
17.9 633
17.92 635
17.94 651
17.96 635
17.98 642
18 635
18.02 650
18.04 646
18.06 658
18.08 660
18.1 696
18.12 648
18.14 692
18.16 650
18.18 636
18.2 627
18.22 653
18.24 730
18.26 673
18.28 642
18.3 673
18.32 686
18.34 675
18.36 670
18.38 708
18.4 684
18.42 667
18.44 709
18.46 638
18.48 681
18.5 665
18.52 670
18.54 698
18.56 612
18.58 706
18.6 698
18.62 688
18.64 693
18.66 669
18.68 666
18.7 667
18.72 693
18.74 669
18.76 710
18.78 732
18.8 698
18.82 718
18.84 735
18.86 706
18.88 724
18.9 686
18.92 710
18.94 667
18.96 726
18.98 714
19 729
19.02 738
19.04 690
19.06 710
19.08 736
19.1 744
19.12 746
19.14 739
19.16 758
19.18 723
19.2 749
19.22 748
19.24 734
19.26 763
19.28 775
19.3 769
19.32 808
19.34 732
19.36 719
19.38 717
19.4 713
19.42 737
19.44 774
19.46 801
19.48 798
19.5 803
19.52 813
19.54 844
19.56 830
19.58 844
19.6 869
19.62 888
19.64 926
19.66 948
19.68 965
19.7 933
19.72 947
19.74 919
19.76 911
19.78 875
19.8 873
19.82 910
19.84 997
19.86 910
19.88 939
19.9 983
19.92 1041
19.94 1006
19.96 1002
19.98 981
20 975
20.02 942
20.04 963
20.06 884
20.08 859
20.1 789
20.12 793
20.14 869
20.16 808
20.18 808
20.2 785
20.22 817
20.24 822
20.26 800
20.28 829
20.3 807
20.32 842
20.34 788
20.36 807
20.38 793
20.4 761
20.42 812
20.44 789
20.46 823
20.48 773
20.5 807
20.52 829
20.54 870
20.56 814
20.58 807
20.6 788
20.62 808
20.64 783
20.66 871
20.68 758
20.7 819
20.72 809
20.74 803
20.76 813
20.78 811
20.8 829
20.82 811
20.84 830
20.86 799
20.88 817
20.9 851
20.92 802
20.94 795
20.96 826
20.98 880
21 853
21.02 881
21.04 871
21.06 825
21.08 757
21.1 854
21.12 862
21.14 828
21.16 878
21.18 860
21.2 819
21.22 851
21.24 870
21.26 804
21.28 838
21.3 875
21.32 840
21.34 823
21.36 835
21.38 883
21.4 792
21.42 876
21.44 831
21.46 820
21.48 859
21.5 875
21.52 857
21.54 885
21.56 856
21.58 809
21.6 830
21.62 829
21.64 904
21.66 862
21.68 939
21.7 915
21.72 894
21.74 859
21.76 904
21.78 881
21.8 951
21.82 984
21.84 901
21.86 870
21.88 882
21.9 912
21.92 880
21.94 885
21.96 873
21.98 852
22 858
22.02 904
22.04 828
22.06 854
22.08 899
22.1 852
22.12 853
22.14 886
22.16 842
22.18 892
22.2 919
22.22 833
22.24 826
22.26 854
22.28 850
22.3 917
22.32 863
22.34 846
22.36 814
22.38 908
22.4 805
22.42 880
22.44 838
22.46 868
22.48 884
22.5 869
22.52 877
22.54 849
22.56 904
22.58 828
22.6 922
22.62 867
22.64 864
22.66 865
22.68 852
22.7 875
22.72 849
22.74 854
22.76 831
22.78 848
22.8 882
22.82 935
22.84 868
22.86 857
22.88 858
22.9 880
22.92 845
22.94 957
22.96 885
22.98 866
23 877
23.02 904
23.04 930
23.06 929
23.08 889
23.1 880
23.12 886
23.14 888
23.16 864
23.18 925
23.2 872
23.22 885
23.24 879
23.26 882
23.28 873
23.3 853
23.32 860
23.34 907
23.36 871
23.38 860
23.4 891
23.42 819
23.44 855
23.46 846
23.48 934
23.5 877
23.52 839
23.54 946
23.56 885
23.58 955
23.6 961
23.62 975
23.64 970
23.66 1026
23.68 1040
23.7 1070
23.72 1026
23.74 1069
23.76 1078
23.78 952
23.8 1060
23.82 1072
23.84 958
23.86 1003
23.88 978
23.9 959
23.92 947
23.94 902
23.96 830
23.98 887
24 927
24.02 927
24.04 932
24.06 858
24.08 897
24.1 912
24.12 928
24.14 903
24.16 869
24.18 832
24.2 870
24.22 880
24.24 836
24.26 908
24.28 838
24.3 842
24.32 863
24.34 850
24.36 869
24.38 892
24.4 842
24.42 850
24.44 873
24.46 862
24.48 882
24.5 921
24.52 870
24.54 876
24.56 867
24.58 820
24.6 846
24.62 857
24.64 817
24.66 900
24.68 883
24.7 879
24.72 897
24.74 888
24.76 926
24.78 884
24.8 943
24.82 939
24.84 980
24.86 1020
24.88 1017
24.9 1006
24.92 953
24.94 975
24.96 982
24.98 947
25 930
25.02 944
25.04 921
25.06 879
25.08 825
25.1 781
25.12 913
25.14 845
25.16 851
25.18 851
25.2 839
25.22 863
25.24 883
25.26 892
25.28 839
25.3 865
25.32 805
25.34 853
25.36 850
25.38 837
25.4 909
25.42 970
25.44 976
25.46 957
25.48 1001
25.5 1007
25.52 1024
25.54 1027
25.56 1017
25.58 1088
25.6 1080
25.62 1117
25.64 1027
25.66 992
25.68 976
25.7 861
25.72 836
25.74 902
25.76 843
25.78 866
25.8 844
25.82 858
25.84 842
25.86 838
25.88 797
25.9 806
25.92 813
25.94 770
25.96 818
25.98 817
26 800
26.02 853
26.04 860
26.06 826
26.08 818
26.1 793
26.12 779
26.14 818
26.16 813
26.18 831
26.2 870
26.22 773
26.24 799
26.26 849
26.28 819
26.3 808
26.32 804
26.34 795
26.36 796
26.38 753
26.4 807
26.42 851
26.44 881
26.46 820
26.48 866
26.5 823
26.52 789
26.54 921
26.56 909
26.58 937
26.6 942
26.62 890
26.64 968
26.66 973
26.68 940
26.7 941
26.72 952
26.74 913
26.76 853
26.78 847
26.8 820
26.82 772
26.84 775
26.86 781
26.88 807
26.9 780
26.92 792
26.94 782
26.96 787
26.98 832
27 771
27.02 812
27.04 826
27.06 844
27.08 803
27.1 786
27.12 783
27.14 801
27.16 779
27.18 798
27.2 785
27.22 782
27.24 821
27.26 768
27.28 831
27.3 849
27.32 886
27.34 838
27.36 944
27.38 946
27.4 932
27.42 915
27.44 921
27.46 952
27.48 968
27.5 1003
27.52 939
27.54 967
27.56 890
27.58 845
27.6 840
27.62 811
27.64 818
27.66 837
27.68 800
27.7 777
27.72 792
27.74 762
27.76 776
27.78 785
27.8 769
27.82 804
27.84 747
27.86 709
27.88 781
27.9 746
27.92 756
27.94 799
27.96 784
27.98 729
28 743
28.02 831
28.04 773
28.06 805
28.08 749
28.1 774
28.12 776
28.14 792
28.16 790
28.18 811
28.2 801
28.22 838
28.24 822
28.26 809
28.28 857
28.3 882
28.32 844
28.34 817
28.36 841
28.38 784
28.4 801
28.42 788
28.44 786
28.46 794
28.48 725
28.5 760
28.52 746
28.54 810
28.56 830
28.58 744
28.6 795
28.62 777
28.64 740
28.66 747
28.68 823
28.7 787
28.72 850
28.74 792
28.76 824
28.78 893
28.8 953
28.82 916
28.84 882
28.86 908
28.88 963
28.9 1001
28.92 933
28.94 930
28.96 951
28.98 946
29 955
29.02 971
29.04 929
29.06 871
29.08 919
29.1 953
29.12 947
29.14 923
29.16 821
29.18 891
29.2 797
29.22 817
29.24 779
29.26 781
29.28 784
29.3 774
29.32 708
29.34 783
29.36 737
29.38 730
29.4 766
29.42 761
29.44 722
29.46 742
29.48 729
29.5 750
29.52 768
29.54 767
29.56 826
29.58 747
29.6 744
29.62 800
29.64 743
29.66 736
29.68 770
29.7 774
29.72 713
29.74 760
29.76 726
29.78 777
29.8 752
29.82 740
29.84 740
29.86 825
29.88 783
29.9 751
29.92 755
29.94 812
29.96 747
29.98 765
30 752