File: xrd-UiO-67/pxrddata/2-22.ASC
2.8 5643
2.82 5328
2.84 4867
2.86 4487
2.88 4016
2.9 3907
2.92 3555
2.94 3239
2.96 3065
2.98 2863
3 2603
3.02 2295
3.04 2159
3.06 2068
3.08 1928
3.1 1926
3.12 1852
3.14 1850
3.16 1792
3.18 1724
3.2 1680
3.22 1687
3.24 1734
3.26 1702
3.28 1626
3.3 1623
3.32 1579
3.34 1641
3.36 1537
3.38 1473
3.4 1505
3.42 1523
3.44 1498
3.46 1518
3.48 1571
3.5 1439
3.52 1459
3.54 1431
3.56 1479
3.58 1450
3.6 1408
3.62 1454
3.64 1441
3.66 1457
3.68 1483
3.7 1474
3.72 1479
3.74 1440
3.76 1405
3.78 1497
3.8 1466
3.82 1482
3.84 1421
3.86 1493
3.88 1552
3.9 1502
3.92 1495
3.94 1576
3.96 1576
3.98 1681
4 1732
4.02 1749
4.04 1808
4.06 2006
4.08 2253
4.1 2385
4.12 2360
4.14 2111
4.16 1773
4.18 1562
4.2 1437
4.22 1428
4.24 1333
4.26 1305
4.28 1198
4.3 1265
4.32 1268
4.34 1218
4.36 1185
4.38 1188
4.4 1155
4.42 1090
4.44 1085
4.46 1058
4.48 1033
4.5 1064
4.52 1026
4.54 1053
4.56 1025
4.58 1029
4.6 991
4.62 1002
4.64 1049
4.66 1025
4.68 1058
4.7 1054
4.72 1007
4.74 1008
4.76 1050
4.78 1089
4.8 1100
4.82 1120
4.84 1058
4.86 1108
4.88 1124
4.9 1146
4.92 1191
4.94 1137
4.96 1152
4.98 1193
5 1230
5.02 1251
5.04 1265
5.06 1221
5.08 1332
5.1 1401
5.12 1445
5.14 1515
5.16 1505
5.18 1574
5.2 1628
5.22 1666
5.24 1734
5.26 1809
5.28 1840
5.3 2001
5.32 2102
5.34 2301
5.36 2430
5.38 2730
5.4 3156
5.42 3399
5.44 2881
5.46 2493
5.48 2295
5.5 2244
5.52 2272
5.54 2375
5.56 2468
5.58 2616
5.6 2710
5.62 2861
5.64 3198
5.66 3399
5.68 3726
5.7 4026
5.72 4533
5.74 5528
5.76 6757
5.78 7795
5.8 6927
5.82 4836
5.84 2956
5.86 2173
5.88 1747
5.9 1583
5.92 1341
5.94 1142
5.96 983
5.98 979
6 886
6.02 902
6.04 897
6.06 887
6.08 878
6.1 848
6.12 898
6.14 821
6.16 866
6.18 853
6.2 833
6.22 854
6.24 836
6.26 842
6.28 834
6.3 872
6.32 821
6.34 829
6.36 855
6.38 786
6.4 830
6.42 811
6.44 878
6.46 872
6.48 865
6.5 832
6.52 831
6.54 880
6.56 901
6.58 891
6.6 901
6.62 987
6.64 1006
6.66 983
6.68 1057
6.7 1104
6.72 1143
6.74 1217
6.76 1425
6.78 1473
6.8 1215
6.82 1008
6.84 909
6.86 820
6.88 756
6.9 805
6.92 789
6.94 735
6.96 717
6.98 676
7 764
7.02 699
7.04 704
7.06 739
7.08 737
7.1 749
7.12 733
7.14 704
7.16 713
7.18 693
7.2 646
7.22 682
7.24 695
7.26 756
7.28 732
7.3 721
7.32 738
7.34 697
7.36 689
7.38 691
7.4 670
7.42 694
7.44 703
7.46 695
7.48 699
7.5 716
7.52 720
7.54 712
7.56 691
7.58 731
7.6 625
7.62 722
7.64 694
7.66 723
7.68 691
7.7 658
7.72 694
7.74 659
7.76 684
7.78 699
7.8 710
7.82 708
7.84 701
7.86 713
7.88 693
7.9 676
7.92 733
7.94 686
7.96 693
7.98 676
8 699
8.02 791
8.04 777
8.06 747
8.08 761
8.1 800
8.12 829
8.14 889
8.16 870
8.18 782
8.2 746
8.22 682
8.24 713
8.26 692
8.28 689
8.3 646
8.32 694
8.34 661
8.36 684
8.38 689
8.4 666
8.42 649
8.44 702
8.46 669
8.48 697
8.5 659
8.52 697
8.54 635
8.56 675
8.58 701
8.6 660
8.62 703
8.64 694
8.66 659
8.68 713
8.7 680
8.72 678
8.74 709
8.76 672
8.78 638
8.8 692
8.82 721
8.84 715
8.86 694
8.88 653
8.9 764
8.92 709
8.94 714
8.96 759
8.98 794
9 813
9.02 797
9.04 821
9.06 854
9.08 912
9.1 901
9.12 929
9.14 919
9.16 966
9.18 1025
9.2 1042
9.22 1134
9.24 1249
9.26 1383
9.28 1529
9.3 1715
9.32 2116
9.34 2416
9.36 1983
9.38 1498
9.4 1085
9.42 861
9.44 841
9.46 786
9.48 782
9.5 737
9.52 708
9.54 703
9.56 703
9.58 691
9.6 677
9.62 681
9.64 711
9.66 708
9.68 742
9.7 687
9.72 740
9.74 765
9.76 752
9.78 739
9.8 773
9.82 702
9.84 683
9.86 724
9.88 718
9.9 746
9.92 807
9.94 755
9.96 777
9.98 799
10 799
10.02 811
10.04 870
10.06 873
10.08 894
10.1 940
10.12 952
10.14 1088
10.16 1207
10.18 1297
10.2 1252
10.22 1110
10.24 921
10.26 781
10.28 760
10.3 783
10.32 742
10.34 683
10.36 717
10.38 698
10.4 683
10.42 686
10.44 680
10.46 666
10.48 751
10.5 747
10.52 729
10.54 699
10.56 805
10.58 796
10.6 779
10.62 762
10.64 762
10.66 801
10.68 859
10.7 887
10.72 892
10.74 994
10.76 1016
10.78 1066
10.8 1064
10.82 1054
10.84 1019
10.86 1087
10.88 1096
10.9 1155
10.92 1262
10.94 1539
10.96 1763
10.98 1674
11 1457
11.02 1140
11.04 947
11.06 803
11.08 760
11.1 731
11.12 725
11.14 718
11.16 704
11.18 662
11.2 732
11.22 722
11.24 738
11.26 730
11.28 741
11.3 773
11.32 827
11.34 811
11.36 742
11.38 818
11.4 864
11.42 936
11.44 934
11.46 996
11.48 1142
11.5 1276
11.52 1276
11.54 1123
11.56 1032
11.58 885
11.6 780
11.62 745
11.64 712
11.66 673
11.68 743
11.7 716
11.72 661
11.74 706
11.76 687
11.78 663
11.8 680
11.82 686
11.84 683
11.86 705
11.88 677
11.9 711
11.92 698
11.94 714
11.96 771
11.98 705
12 756
12.02 753
12.04 694
12.06 740
12.08 786
12.1 765
12.12 859
12.14 818
12.16 878
12.18 977
12.2 978
12.22 1011
12.24 979
12.26 873
12.28 774
12.3 773
12.32 731
12.34 773
12.36 788
12.38 805
12.4 751
12.42 736
12.44 739
12.46 713
12.48 741
12.5 698
12.52 754
12.54 685
12.56 691
12.58 706
12.6 714
12.62 682
12.64 719
12.66 742
12.68 714
12.7 717
12.72 713
12.74 692
12.76 683
12.78 711
12.8 672
12.82 685
12.84 712
12.86 696
12.88 705
12.9 656
12.92 705
12.94 718
12.96 679
12.98 710
13 623
13.02 690
13.04 682
13.06 664
13.08 744
13.1 767
13.12 765
13.14 735
13.16 701
13.18 735
13.2 759
13.22 737
13.24 773
13.26 780
13.28 810
13.3 842
13.32 777
13.34 829
13.36 827
13.38 838
13.4 806
13.42 742
13.44 769
13.46 812
13.48 844
13.5 775
13.52 797
13.54 830
13.56 786
13.58 751
13.6 742
13.62 743
13.64 726
13.66 710
13.68 740
13.7 734
13.72 727
13.74 702
13.76 758
13.78 744
13.8 750
13.82 707
13.84 681
13.86 730
13.88 748
13.9 723
13.92 723
13.94 789
13.96 777
13.98 765
14 728
14.02 710
14.04 730
14.06 765
14.08 736
14.1 782
14.12 789
14.14 781
14.16 757
14.18 779
14.2 739
14.22 754
14.24 812
14.26 794
14.28 775
14.3 845
14.32 810
14.34 767
14.36 795
14.38 882
14.4 852
14.42 847
14.44 807
14.46 763
14.48 778
14.5 767
14.52 788
14.54 815
14.56 800
14.58 781
14.6 832
14.62 770
14.64 794
14.66 820
14.68 820
14.7 810
14.72 844
14.74 855
14.76 865
14.78 876
14.8 926
14.82 945
14.84 909
14.86 891
14.88 817
14.9 857
14.92 837
14.94 850
14.96 856
14.98 796
15 815
15.02 844
15.04 818
15.06 757
15.08 866
15.1 839
15.12 805
15.14 814
15.16 857
15.18 902
15.2 932
15.22 958
15.24 916
15.26 844
15.28 851
15.3 886
15.32 868
15.34 857
15.36 869
15.38 885
15.4 844
15.42 884
15.44 862
15.46 878
15.48 862
15.5 932
15.52 906
15.54 857
15.56 834
15.58 886
15.6 888
15.62 846
15.64 824
15.66 865
15.68 884
15.7 861
15.72 882
15.74 837
15.76 857
15.78 859
15.8 929
15.82 829
15.84 908
15.86 874
15.88 901
15.9 903
15.92 912
15.94 859
15.96 883
15.98 884
16 903
16.02 877
16.04 967
16.06 961
16.08 965
16.1 903
16.12 903
16.14 941
16.16 975
16.18 970
16.2 953
16.22 991
16.24 974
16.26 1019
16.28 1085
16.3 1087
16.32 1119
16.34 1050
16.36 987
16.38 1017
16.4 964
16.42 1012
16.44 1035
16.46 930
16.48 968
16.5 972
16.52 1022
16.54 987
16.56 952
16.58 1025
16.6 939
16.62 990
16.64 1015
16.66 1025
16.68 1065
16.7 1073
16.72 1044
16.74 1075
16.76 1120
16.78 1046
16.8 1084
16.82 1148
16.84 1168
16.86 1166
16.88 1272
16.9 1318
16.92 1435
16.94 1573
16.96 1747
16.98 1996
17 2164
17.02 2113
17.04 1965
17.06 1706
17.08 1490
17.1 1285
17.12 1224
17.14 1201
17.16 1096
17.18 1127
17.2 1138
17.22 1083
17.24 1074
17.26 1121
17.28 1169
17.3 1171
17.32 1138
17.34 1120
17.36 1060
17.38 1077
17.4 1163
17.42 1077
17.44 1159
17.46 1085
17.48 1071
17.5 1161
17.52 1164
17.54 1127
17.56 1116
17.58 1084
17.6 1100
17.62 1124
17.64 1125
17.66 1089
17.68 1096
17.7 1104
17.72 1066
17.74 1108
17.76 1150
17.78 1159
17.8 1124
17.82 1209
17.84 1142
17.86 1185
17.88 1204
17.9 1167
17.92 1183
17.94 1156
17.96 1173
17.98 1139
18 1197
18.02 1154
18.04 1206
18.06 1138
18.08 1172
18.1 1136
18.12 1144
18.14 1183
18.16 1212
18.18 1189
18.2 1202
18.22 1099
18.24 1193
18.26 1219
18.28 1202
18.3 1192
18.32 1177
18.34 1285
18.36 1211
18.38 1247
18.4 1256
18.42 1212
18.44 1253
18.46 1198
18.48 1213
18.5 1200
18.52 1219
18.54 1261
18.56 1218
18.58 1237
18.6 1294
18.62 1265
18.64 1280
18.66 1307
18.68 1364
18.7 1336
18.72 1336
18.74 1396
18.76 1334
18.78 1433
18.8 1456
18.82 1394
18.84 1392
18.86 1343
18.88 1344
18.9 1368
18.92 1336
18.94 1400
18.96 1335
18.98 1392
19 1386
19.02 1412
19.04 1515
19.06 1539
19.08 1579
19.1 1699
19.12 1739
19.14 1773
19.16 1630
19.18 1488
19.2 1447
19.22 1390
19.24 1374
19.26 1359
19.28 1344
19.3 1396
19.32 1332
19.34 1478
19.36 1427
19.38 1446
19.4 1438
19.42 1508
19.44 1556
19.46 1594
19.48 1547
19.5 1664
19.52 1654
19.54 1706
19.56 1628
19.58 1650
19.6 1551
19.62 1509
19.64 1542
19.66 1496
19.68 1392
19.7 1454
19.72 1439
19.74 1430
19.76 1462
19.78 1453
19.8 1447
19.82 1421
19.84 1502
19.86 1571
19.88 1587
19.9 1538
19.92 1546
19.94 1537
19.96 1446
19.98 1445
20 1415
20.02 1404
20.04 1424
20.06 1416
20.08 1386
20.1 1488
20.12 1450
20.14 1513
20.16 1470
20.18 1557
20.2 1508
20.22 1529
20.24 1567
20.26 1619
20.28 1616
20.3 1682
20.32 1575
20.34 1654
20.36 1602
20.38 1481
20.4 1499
20.42 1489
20.44 1543
20.46 1550
20.48 1468
20.5 1470
20.52 1558
20.54 1477
20.56 1451
20.58 1420
20.6 1488
20.62 1478
20.64 1458
20.66 1511
20.68 1518
20.7 1478
20.72 1454
20.74 1488
20.76 1497
20.78 1481
20.8 1489
20.82 1569
20.84 1519
20.86 1541
20.88 1453
20.9 1473
20.92 1514
20.94 1475
20.96 1510
20.98 1501
21 1491
21.02 1545
21.04 1539
21.06 1571
21.08 1592
21.1 1603
21.12 1610
21.14 1548
21.16 1563
21.18 1556
21.2 1586
21.22 1499
21.24 1464
21.26 1509
21.28 1472
21.3 1587
21.32 1523
21.34 1490
21.36 1448
21.38 1469
21.4 1493
21.42 1450
21.44 1561
21.46 1482
21.48 1480
21.5 1513
21.52 1552
21.54 1552
21.56 1559
21.58 1597
21.6 1542
21.62 1582
21.64 1578
21.66 1631
21.68 1547
21.7 1629
21.72 1556
21.74 1491
21.76 1581
21.78 1525
21.8 1508
21.82 1508
21.84 1520
21.86 1531
21.88 1587
21.9 1639
21.92 1680
21.94 1705
21.96 1730
21.98 1746
22 1784
22.02 1682
22.04 1699
22.06 1548
22.08 1546
22.1 1567
22.12 1498
22.14 1540
22.16 1529
22.18 1529
22.2 1522
22.22 1500
22.24 1503
22.26 1493
22.28 1475
22.3 1557
22.32 1528
22.34 1553
22.36 1419
22.38 1526
22.4 1586
22.42 1622
22.44 1599
22.46 1622
22.48 1619
22.5 1555
22.52 1553
22.54 1555
22.56 1498
22.58 1514
22.6 1528
22.62 1517
22.64 1591
22.66 1482
22.68 1509
22.7 1498
22.72 1452
22.74 1525
22.76 1500
22.78 1511
22.8 1492
22.82 1486
22.84 1490
22.86 1468
22.88 1506
22.9 1508
22.92 1497
22.94 1520
22.96 1618
22.98 1594
23 1630
23.02 1658
23.04 1702
23.06 1832
23.08 1830
23.1 1848
23.12 1723
23.14 1781
23.16 1601
23.18 1536
23.2 1573
23.22 1522
23.24 1471
23.26 1572
23.28 1510
23.3 1525
23.32 1497
23.34 1536
23.36 1543
23.38 1504
23.4 1506
23.42 1453
23.44 1535
23.46 1454
23.48 1509
23.5 1521
23.52 1524
23.54 1565
23.56 1532
23.58 1602
23.6 1620
23.62 1595
23.64 1652
23.66 1665
23.68 1612
23.7 1565
23.72 1508
23.74 1502
23.76 1525
23.78 1510
23.8 1459
23.82 1510
23.84 1549
23.86 1500
23.88 1510
23.9 1521
23.92 1462
23.94 1530
23.96 1480
23.98 1438
24 1389
24.02 1452
24.04 1443
24.06 1421
24.08 1515
24.1 1381
24.12 1432
24.14 1478
24.16 1400
24.18 1438
24.2 1416
24.22 1452
24.24 1416
24.26 1423
24.28 1424
24.3 1426
24.32 1487
24.34 1427
24.36 1429
24.38 1495
24.4 1531
24.42 1403
24.44 1564
24.46 1645
24.48 1678
24.5 1750
24.52 1772
24.54 1781
24.56 1728
24.58 1659
24.6 1687
24.62 1556
24.64 1526
24.66 1541
24.68 1459
24.7 1544
24.72 1525
24.74 1616
24.76 1806
24.78 1704
24.8 1610
24.82 1636
24.84 1642
24.86 1598
24.88 1572
24.9 1549
24.92 1613
24.94 1551
24.96 1496
24.98 1528
25 1476
25.02 1523
25.04 1520
25.06 1584
25.08 1616
25.1 1635
25.12 1695
25.14 1620
25.16 1690
25.18 1577
25.2 1574
25.22 1634
25.24 1615
25.26 1637
25.28 1747
25.3 1688
25.32 1664
25.34 1636
25.36 1571
25.38 1589
25.4 1499
25.42 1478
25.44 1531
25.46 1518
25.48 1544
25.5 1615
25.52 1635
25.54 1619
25.56 1589
25.58 1506
25.6 1468
25.62 1438
25.64 1375
25.66 1333
25.68 1337
25.7 1358
25.72 1341
25.74 1306
25.76 1215
25.78 1308
25.8 1258
25.82 1283
25.84 1270
25.86 1336
25.88 1269
25.9 1299
25.92 1283
25.94 1286
25.96 1337
25.98 1318
26 1239
26.02 1275
26.04 1240
26.06 1315
26.08 1353
26.1 1312
26.12 1327
26.14 1319
26.16 1317
26.18 1355
26.2 1304
26.22 1356
26.24 1363
26.26 1427
26.28 1352
26.3 1334
26.32 1368
26.34 1354
26.36 1278
26.38 1232
26.4 1250
26.42 1242
26.44 1292
26.46 1199
26.48 1228
26.5 1283
26.52 1247
26.54 1259
26.56 1305
26.58 1300
26.6 1321
26.62 1331
26.64 1309
26.66 1345
26.68 1416
26.7 1372
26.72 1402
26.74 1343
26.76 1449
26.78 1477
26.8 1591
26.82 1628
26.84 1695
26.86 1645
26.88 1657
26.9 1600
26.92 1544
26.94 1479
26.96 1492
26.98 1402
27 1460
27.02 1458
27.04 1500
27.06 1418
27.08 1510
27.1 1718
27.12 1714
27.14 1680
27.16 1682
27.18 1605
27.2 1570
27.22 1441
27.24 1390
27.26 1359
27.28 1303
27.3 1272
27.32 1368
27.34 1327
27.36 1283
27.38 1264
27.4 1317
27.42 1211
27.44 1258
27.46 1196
27.48 1276
27.5 1182
27.52 1172
27.54 1184
27.56 1131
27.58 1152
27.6 1155
27.62 1198
27.64 1220
27.66 1312
27.68 1287
27.7 1277
27.72 1277
27.74 1277
27.76 1336
27.78 1261
27.8 1261
27.82 1237
27.84 1207
27.86 1178
27.88 1193
27.9 1170
27.92 1194
27.94 1151
27.96 1182
27.98 1178
28 1141
28.02 1129
28.04 1141
28.06 1191
28.08 1107
28.1 1218
28.12 1283
28.14 1264
28.16 1311
28.18 1253
28.2 1259
28.22 1317
28.24 1442
28.26 1451
28.28 1461
28.3 1547
28.32 1455
28.34 1338
28.36 1374
28.38 1328
28.4 1311
28.42 1332
28.44 1336
28.46 1270
28.48 1235
28.5 1178
28.52 1214
28.54 1173
28.56 1200
28.58 1180
28.6 1236
28.62 1318
28.64 1257
28.66 1344
28.68 1349
28.7 1354
28.72 1442
28.74 1390
28.76 1415
28.78 1342
28.8 1320
28.82 1321
28.84 1287
28.86 1202
28.88 1218
28.9 1214
28.92 1238
28.94 1187
28.96 1236
28.98 1333
29 1249
29.02 1231
29.04 1185
29.06 1212
29.08 1224
29.1 1176
29.12 1114
29.14 1159
29.16 1163
29.18 1180
29.2 1189
29.22 1241
29.24 1159
29.26 1202
29.28 1157
29.3 1128
29.32 1217
29.34 1058
29.36 1080
29.38 1094
29.4 1063
29.42 1068
29.44 1098
29.46 1033
29.48 1054
29.5 1075
29.52 1055
29.54 1028
29.56 1048
29.58 1026
29.6 1041
29.62 1057
29.64 1054
29.66 1078
29.68 1080
29.7 1077
29.72 1110
29.74 1189
29.76 1220
29.78 1210
29.8 1305
29.82 1381
29.84 1355
29.86 1311
29.88 1242
29.9 1214
29.92 1173
29.94 1120
29.96 1159
29.98 1100
30 1088