File: xrd-UiO-67/pxrddata/2-23.ASC
2.8 5357
2.82 4811
2.84 4467
2.86 4051
2.88 3783
2.9 3481
2.92 3137
2.94 2795
2.96 2589
2.98 2327
3 2133
3.02 2023
3.04 1878
3.06 1752
3.08 1652
3.1 1551
3.12 1549
3.14 1528
3.16 1439
3.18 1436
3.2 1431
3.22 1440
3.24 1350
3.26 1372
3.28 1327
3.3 1327
3.32 1368
3.34 1322
3.36 1415
3.38 1331
3.4 1244
3.42 1226
3.44 1259
3.46 1210
3.48 1251
3.5 1253
3.52 1226
3.54 1178
3.56 1208
3.58 1169
3.6 1194
3.62 1191
3.64 1166
3.66 1145
3.68 1077
3.7 1126
3.72 1105
3.74 1116
3.76 1185
3.78 1157
3.8 1140
3.82 1100
3.84 1125
3.86 1135
3.88 1162
3.9 1079
3.92 1100
3.94 1162
3.96 1194
3.98 1180
4 1130
4.02 1171
4.04 1221
4.06 1244
4.08 1270
4.1 1333
4.12 1375
4.14 1260
4.16 1313
4.18 1282
4.2 1322
4.22 1258
4.24 1236
4.26 1207
4.28 1032
4.3 963
4.32 938
4.34 933
4.36 936
4.38 890
4.4 899
4.42 894
4.44 891
4.46 883
4.48 858
4.5 870
4.52 859
4.54 813
4.56 881
4.58 845
4.6 854
4.62 793
4.64 812
4.66 840
4.68 822
4.7 826
4.72 793
4.74 827
4.76 790
4.78 826
4.8 806
4.82 835
4.84 846
4.86 901
4.88 846
4.9 858
4.92 889
4.94 826
4.96 845
4.98 834
5 856
5.02 853
5.04 891
5.06 900
5.08 903
5.1 914
5.12 886
5.14 997
5.16 946
5.18 937
5.2 990
5.22 1072
5.24 1039
5.26 1070
5.28 1097
5.3 1178
5.32 1214
5.34 1241
5.36 1235
5.38 1398
5.4 1354
5.42 1354
5.44 1422
5.46 1458
5.48 1514
5.5 1539
5.52 1531
5.54 1543
5.56 1541
5.58 1469
5.6 1464
5.62 1396
5.64 1493
5.66 1545
5.68 1657
5.7 1691
5.72 1861
5.74 2166
5.76 2219
5.78 2300
5.8 2294
5.82 2416
5.84 2457
5.86 2415
5.88 2453
5.9 2396
5.92 2217
5.94 1904
5.96 1464
5.98 1130
6 933
6.02 878
6.04 877
6.06 860
6.08 802
6.1 782
6.12 760
6.14 768
6.16 741
6.18 719
6.2 757
6.22 807
6.24 746
6.26 772
6.28 733
6.3 724
6.32 741
6.34 768
6.36 746
6.38 764
6.4 766
6.42 793
6.44 761
6.46 720
6.48 733
6.5 752
6.52 803
6.54 773
6.56 797
6.58 797
6.6 764
6.62 799
6.64 783
6.66 763
6.68 840
6.7 864
6.72 831
6.74 824
6.76 889
6.78 845
6.8 902
6.82 919
6.84 874
6.86 836
6.88 881
6.9 846
6.92 814
6.94 754
6.96 750
6.98 742
7 747
7.02 703
7.04 734
7.06 718
7.08 713
7.1 712
7.12 712
7.14 737
7.16 694
7.18 721
7.2 698
7.22 690
7.24 743
7.26 691
7.28 668
7.3 646
7.32 667
7.34 722
7.36 721
7.38 693
7.4 661
7.42 690
7.44 686
7.46 685
7.48 675
7.5 673
7.52 677
7.54 681
7.56 702
7.58 721
7.6 730
7.62 673
7.64 711
7.66 698
7.68 719
7.7 731
7.72 673
7.74 706
7.76 738
7.78 661
7.8 693
7.82 697
7.84 711
7.86 737
7.88 702
7.9 736
7.92 687
7.94 727
7.96 731
7.98 719
8 683
8.02 691
8.04 716
8.06 697
8.08 697
8.1 724
8.12 680
8.14 724
8.16 748
8.18 765
8.2 774
8.22 715
8.24 729
8.26 715
8.28 722
8.3 710
8.32 693
8.34 707
8.36 641
8.38 663
8.4 654
8.42 672
8.44 677
8.46 676
8.48 673
8.5 661
8.52 661
8.54 663
8.56 718
8.58 727
8.6 696
8.62 701
8.64 720
8.66 721
8.68 704
8.7 733
8.72 716
8.74 709
8.76 699
8.78 644
8.8 675
8.82 708
8.84 705
8.86 667
8.88 677
8.9 698
8.92 692
8.94 667
8.96 695
8.98 689
9 681
9.02 675
9.04 721
9.06 707
9.08 724
9.1 720
9.12 723
9.14 752
9.16 784
9.18 767
9.2 723
9.22 835
9.24 847
9.26 818
9.28 864
9.3 865
9.32 914
9.34 949
9.36 939
9.38 937
9.4 926
9.42 985
9.44 952
9.46 946
9.48 912
9.5 816
9.52 779
9.54 693
9.56 745
9.58 686
9.6 718
9.62 688
9.64 696
9.66 714
9.68 659
9.7 653
9.72 681
9.74 694
9.76 697
9.78 673
9.8 704
9.82 725
9.84 734
9.86 730
9.88 700
9.9 639
9.92 676
9.94 666
9.96 705
9.98 716
10 707
10.02 674
10.04 679
10.06 708
10.08 718
10.1 692
10.12 753
10.14 758
10.16 798
10.18 743
10.2 785
10.22 805
10.24 761
10.26 775
10.28 791
10.3 770
10.32 785
10.34 761
10.36 756
10.38 682
10.4 679
10.42 731
10.44 681
10.46 672
10.48 689
10.5 677
10.52 677
10.54 703
10.56 761
10.58 662
10.6 686
10.62 708
10.64 717
10.66 689
10.68 703
10.7 744
10.72 739
10.74 736
10.76 750
10.78 737
10.8 774
10.82 755
10.84 719
10.86 796
10.88 830
10.9 858
10.92 828
10.94 792
10.96 869
10.98 827
11 837
11.02 829
11.04 841
11.06 831
11.08 861
11.1 893
11.12 840
11.14 791
11.16 700
11.18 706
11.2 733
11.22 712
11.24 711
11.26 716
11.28 656
11.3 647
11.32 715
11.34 730
11.36 707
11.38 705
11.4 747
11.42 721
11.44 721
11.46 781
11.48 801
11.5 853
11.52 806
11.54 753
11.56 781
11.58 762
11.6 758
11.62 790
11.64 766
11.66 805
11.68 718
11.7 736
11.72 716
11.74 695
11.76 653
11.78 640
11.8 658
11.82 688
11.84 733
11.86 709
11.88 702
11.9 713
11.92 669
11.94 680
11.96 694
11.98 679
12 705
12.02 724
12.04 749
12.06 705
12.08 727
12.1 744
12.12 679
12.14 708
12.16 708
12.18 744
12.2 772
12.22 755
12.24 751
12.26 773
12.28 719
12.3 691
12.32 745
12.34 793
12.36 727
12.38 685
12.4 696
12.42 744
12.44 735
12.46 745
12.48 700
12.5 750
12.52 672
12.54 745
12.56 713
12.58 695
12.6 667
12.62 716
12.64 687
12.66 689
12.68 702
12.7 692
12.72 685
12.74 739
12.76 710
12.78 693
12.8 661
12.82 654
12.84 673
12.86 723
12.88 710
12.9 667
12.92 711
12.94 708
12.96 710
12.98 665
13 687
13.02 723
13.04 729
13.06 701
13.08 714
13.1 678
13.12 722
13.14 719
13.16 750
13.18 702
13.2 741
13.22 726
13.24 710
13.26 723
13.28 739
13.3 715
13.32 738
13.34 711
13.36 725
13.38 717
13.4 720
13.42 754
13.44 780
13.46 714
13.48 729
13.5 692
13.52 767
13.54 713
13.56 731
13.58 733
13.6 712
13.62 761
13.64 734
13.66 731
13.68 761
13.7 735
13.72 737
13.74 720
13.76 710
13.78 724
13.8 774
13.82 742
13.84 744
13.86 777
13.88 775
13.9 759
13.92 740
13.94 673
13.96 773
13.98 700
14 735
14.02 728
14.04 730
14.06 693
14.08 726
14.1 721
14.12 742
14.14 760
14.16 761
14.18 762
14.2 781
14.22 759
14.24 765
14.26 763
14.28 774
14.3 763
14.32 786
14.34 791
14.36 785
14.38 747
14.4 770
14.42 779
14.44 798
14.46 755
14.48 795
14.5 768
14.52 775
14.54 769
14.56 738
14.58 789
14.6 732
14.62 757
14.64 725
14.66 741
14.68 757
14.7 821
14.72 778
14.74 800
14.76 783
14.78 782
14.8 820
14.82 782
14.84 791
14.86 859
14.88 824
14.9 830
14.92 840
14.94 847
14.96 869
14.98 788
15 827
15.02 840
15.04 761
15.06 797
15.08 758
15.1 860
15.12 796
15.14 759
15.16 788
15.18 794
15.2 817
15.22 779
15.24 834
15.26 880
15.28 793
15.3 841
15.32 801
15.34 808
15.36 867
15.38 837
15.4 798
15.42 798
15.44 862
15.46 807
15.48 800
15.5 826
15.52 862
15.54 899
15.56 807
15.58 829
15.6 860
15.62 832
15.64 835
15.66 852
15.68 857
15.7 847
15.72 827
15.74 844
15.76 839
15.78 848
15.8 884
15.82 869
15.84 881
15.86 888
15.88 849
15.9 938
15.92 885
15.94 827
15.96 858
15.98 828
16 828
16.02 893
16.04 867
16.06 915
16.08 896
16.1 860
16.12 917
16.14 956
16.16 886
16.18 879
16.2 892
16.22 915
16.24 927
16.26 922
16.28 960
16.3 936
16.32 956
16.34 964
16.36 950
16.38 875
16.4 979
16.42 915
16.44 932
16.46 956
16.48 924
16.5 924
16.52 986
16.54 951
16.56 964
16.58 967
16.6 926
16.62 964
16.64 992
16.66 936
16.68 988
16.7 967
16.72 928
16.74 985
16.76 1014
16.78 997
16.8 999
16.82 1067
16.84 1092
16.86 1050
16.88 1015
16.9 1089
16.92 1094
16.94 1165
16.96 1252
16.98 1278
17 1350
17.02 1311
17.04 1319
17.06 1362
17.08 1353
17.1 1296
17.12 1260
17.14 1274
17.16 1304
17.18 1294
17.2 1196
17.22 1167
17.24 1036
17.26 1091
17.28 1050
17.3 1085
17.32 1074
17.34 1079
17.36 1078
17.38 1072
17.4 1090
17.42 1084
17.44 1084
17.46 1048
17.48 1075
17.5 1083
17.52 1086
17.54 1117
17.56 1129
17.58 1069
17.6 1097
17.62 1166
17.64 1140
17.66 1124
17.68 1100
17.7 1038
17.72 1079
17.74 1096
17.76 1143
17.78 1109
17.8 1143
17.82 1123
17.84 1098
17.86 1155
17.88 1190
17.9 1167
17.92 1143
17.94 1096
17.96 1063
17.98 1196
18 1178
18.02 1143
18.04 1136
18.06 1183
18.08 1150
18.1 1141
18.12 1140
18.14 1189
18.16 1256
18.18 1237
18.2 1121
18.22 1242
18.24 1250
18.26 1197
18.28 1183
18.3 1137
18.32 1225
18.34 1223
18.36 1222
18.38 1245
18.4 1187
18.42 1158
18.44 1212
18.46 1227
18.48 1209
18.5 1170
18.52 1219
18.54 1251
18.56 1282
18.58 1259
18.6 1255
18.62 1254
18.64 1246
18.66 1304
18.68 1332
18.7 1312
18.72 1277
18.74 1332
18.76 1309
18.78 1249
18.8 1351
18.82 1343
18.84 1235
18.86 1354
18.88 1307
18.9 1326
18.92 1342
18.94 1397
18.96 1364
18.98 1364
19 1356
19.02 1274
19.04 1385
19.06 1390
19.08 1419
19.1 1415
19.12 1457
19.14 1412
19.16 1449
19.18 1384
19.2 1404
19.22 1385
19.24 1457
19.26 1456
19.28 1468
19.3 1467
19.32 1445
19.34 1468
19.36 1362
19.38 1380
19.4 1447
19.42 1486
19.44 1460
19.46 1426
19.48 1399
19.5 1496
19.52 1459
19.54 1555
19.56 1538
19.58 1505
19.6 1519
19.62 1555
19.64 1467
19.66 1553
19.68 1438
19.7 1493
19.72 1553
19.74 1508
19.76 1461
19.78 1498
19.8 1487
19.82 1525
19.84 1491
19.86 1464
19.88 1500
19.9 1603
19.92 1513
19.94 1562
19.96 1499
19.98 1550
20 1538
20.02 1476
20.04 1557
20.06 1530
20.08 1494
20.1 1456
20.12 1538
20.14 1496
20.16 1508
20.18 1577
20.2 1556
20.22 1540
20.24 1581
20.26 1560
20.28 1505
20.3 1559
20.32 1602
20.34 1602
20.36 1588
20.38 1515
20.4 1624
20.42 1563
20.44 1511
20.46 1547
20.48 1578
20.5 1595
20.52 1532
20.54 1530
20.56 1560
20.58 1554
20.6 1551
20.62 1553
20.64 1563
20.66 1535
20.68 1571
20.7 1599
20.72 1551
20.74 1535
20.76 1543
20.78 1663
20.8 1533
20.82 1577
20.84 1536
20.86 1562
20.88 1540
20.9 1610
20.92 1576
20.94 1558
20.96 1558
20.98 1509
21 1630
21.02 1585
21.04 1592
21.06 1599
21.08 1604
21.1 1588
21.12 1602
21.14 1617
21.16 1519
21.18 1626
21.2 1593
21.22 1616
21.24 1544
21.26 1672
21.28 1586
21.3 1659
21.32 1516
21.34 1514
21.36 1542
21.38 1531
21.4 1556
21.42 1580
21.44 1606
21.46 1530
21.48 1606
21.5 1557
21.52 1518
21.54 1577
21.56 1571
21.58 1527
21.6 1537
21.62 1506
21.64 1551
21.66 1571
21.68 1539
21.7 1575
21.72 1594
21.74 1595
21.76 1543
21.78 1572
21.8 1600
21.82 1571
21.84 1496
21.86 1618
21.88 1542
21.9 1534
21.92 1577
21.94 1592
21.96 1551
21.98 1582
22 1577
22.02 1492
22.04 1464
22.06 1617
22.08 1541
22.1 1610
22.12 1642
22.14 1574
22.16 1532
22.18 1548
22.2 1532
22.22 1571
22.24 1454
22.26 1530
22.28 1477
22.3 1466
22.32 1482
22.34 1498
22.36 1515
22.38 1432
22.4 1497
22.42 1485
22.44 1483
22.46 1394
22.48 1510
22.5 1445
22.52 1494
22.54 1552
22.56 1486
22.58 1452
22.6 1426
22.62 1440
22.64 1500
22.66 1492
22.68 1423
22.7 1431
22.72 1460
22.74 1398
22.76 1404
22.78 1483
22.8 1468
22.82 1448
22.84 1424
22.86 1448
22.88 1442
22.9 1436
22.92 1402
22.94 1420
22.96 1461
22.98 1379
23 1400
23.02 1419
23.04 1413
23.06 1450
23.08 1406
23.1 1497
23.12 1471
23.14 1443
23.16 1484
23.18 1441
23.2 1464
23.22 1401
23.24 1385
23.26 1380
23.28 1398
23.3 1408
23.32 1435
23.34 1385
23.36 1300
23.38 1359
23.4 1373
23.42 1356
23.44 1294
23.46 1337
23.48 1369
23.5 1321
23.52 1365
23.54 1322
23.56 1292
23.58 1378
23.6 1346
23.62 1296
23.64 1332
23.66 1383
23.68 1350
23.7 1365
23.72 1324
23.74 1361
23.76 1363
23.78 1348
23.8 1360
23.82 1321
23.84 1220
23.86 1296
23.88 1255
23.9 1290
23.92 1303
23.94 1207
23.96 1212
23.98 1214
24 1243
24.02 1232
24.04 1226
24.06 1255
24.08 1180
24.1 1283
24.12 1241
24.14 1167
24.16 1268
24.18 1195
24.2 1211
24.22 1212
24.24 1229
24.26 1184
24.28 1228
24.3 1193
24.32 1226
24.34 1219
24.36 1175
24.38 1208
24.4 1196
24.42 1201
24.44 1180
24.46 1285
24.48 1204
24.5 1235
24.52 1245
24.54 1253
24.56 1274
24.58 1304
24.6 1292
24.62 1268
24.64 1295
24.66 1270
24.68 1305
24.7 1207
24.72 1232
24.74 1257
24.76 1226
24.78 1214
24.8 1215
24.82 1202
24.84 1199
24.86 1239
24.88 1177
24.9 1213
24.92 1210
24.94 1169
24.96 1192
24.98 1145
25 1152
25.02 1178
25.04 1125
25.06 1139
25.08 1211
25.1 1153
25.12 1244
25.14 1166
25.16 1147
25.18 1171
25.2 1180
25.22 1262
25.24 1164
25.26 1194
25.28 1256
25.3 1248
25.32 1194
25.34 1202
25.36 1184
25.38 1244
25.4 1217
25.42 1207
25.44 1168
25.46 1162
25.48 1143
25.5 1137
25.52 1147
25.54 1148
25.56 1168
25.58 1095
25.6 1125
25.62 1112
25.64 1124
25.66 1156
25.68 1080
25.7 1105
25.72 990
25.74 1001
25.76 986
25.78 1003
25.8 969
25.82 968
25.84 996
25.86 987
25.88 978
25.9 1005
25.92 993
25.94 944
25.96 968
25.98 972
26 996
26.02 994
26.04 986
26.06 958
26.08 1018
26.1 1012
26.12 913
26.14 915
26.16 978
26.18 1008
26.2 1008
26.22 969
26.24 954
26.26 990
26.28 965
26.3 979
26.32 1010
26.34 976
26.36 985
26.38 959
26.4 945
26.42 985
26.44 924
26.46 902
26.48 908
26.5 932
26.52 945
26.54 938
26.56 949
26.58 946
26.6 974
26.62 970
26.64 942
26.66 987
26.68 922
26.7 962
26.72 1012
26.74 905
26.76 975
26.78 963
26.8 974
26.82 1005
26.84 968
26.86 1016
26.88 1023
26.9 1062
26.92 1051
26.94 1142
26.96 1091
26.98 1041
27 1032
27.02 1026
27.04 1065
27.06 1039
27.08 1047
27.1 1069
27.12 972
27.14 1038
27.16 1033
27.18 917
27.2 987
27.22 1066
27.24 991
27.26 951
27.28 988
27.3 949
27.32 937
27.34 953
27.36 949
27.38 934
27.4 886
27.42 911
27.44 877
27.46 898
27.48 882
27.5 890
27.52 914
27.54 865
27.56 840
27.58 852
27.6 834
27.62 851
27.64 856
27.66 874
27.68 802
27.7 859
27.72 918
27.74 894
27.76 796
27.78 822
27.8 881
27.82 832
27.84 839
27.86 818
27.88 783
27.9 852
27.92 803
27.94 821
27.96 815
27.98 822
28 764
28.02 850
28.04 797
28.06 821
28.08 840
28.1 816
28.12 824
28.14 837
28.16 808
28.18 842
28.2 827
28.22 826
28.24 883
28.26 856
28.28 913
28.3 864
28.32 884
28.34 889
28.36 906
28.38 881
28.4 909
28.42 963
28.44 927
28.46 867
28.48 879
28.5 882
28.52 870
28.54 844
28.56 804
28.58 868
28.6 817
28.62 778
28.64 801
28.66 829
28.68 858
28.7 846
28.72 856
28.74 900
28.76 863
28.78 859
28.8 866
28.82 938
28.84 880
28.86 788
28.88 834
28.9 818
28.92 808
28.94 839
28.96 794
28.98 789
29 814
29.02 803
29.04 803
29.06 834
29.08 789
29.1 799
29.12 806
29.14 831
29.16 789
29.18 778
29.2 818
29.22 746
29.24 842
29.26 802
29.28 768
29.3 771
29.32 781
29.34 754
29.36 762
29.38 711
29.4 790
29.42 744
29.44 714
29.46 693
29.48 722
29.5 743
29.52 686
29.54 717
29.56 703
29.58 743
29.6 733
29.62 716
29.64 727
29.66 674
29.68 742
29.7 724
29.72 698
29.74 755
29.76 717
29.78 775
29.8 798
29.82 788
29.84 788
29.86 750
29.88 802
29.9 789
29.92 796
29.94 851
29.96 803
29.98 811
30 799