File: xrd-UiO-67/pxrddata/2-25.ASC
2.8 5498
2.82 4838
2.84 4393
2.86 4028
2.88 3646
2.9 3323
2.92 3016
2.94 2812
2.96 2497
2.98 2309
3 2132
3.02 1991
3.04 1831
3.06 1739
3.08 1607
3.1 1538
3.12 1466
3.14 1398
3.16 1473
3.18 1371
3.2 1347
3.22 1374
3.24 1347
3.26 1298
3.28 1314
3.3 1362
3.32 1298
3.34 1248
3.36 1208
3.38 1269
3.4 1269
3.42 1227
3.44 1215
3.46 1135
3.48 1175
3.5 1176
3.52 1245
3.54 1174
3.56 1137
3.58 1127
3.6 1140
3.62 1144
3.64 1079
3.66 1074
3.68 1085
3.7 1127
3.72 1066
3.74 1125
3.76 1038
3.78 1145
3.8 994
3.82 993
3.84 1017
3.86 1050
3.88 1046
3.9 981
3.92 1001
3.94 966
3.96 992
3.98 983
4 958
4.02 933
4.04 957
4.06 984
4.08 956
4.1 988
4.12 919
4.14 947
4.16 918
4.18 913
4.2 935
4.22 897
4.24 889
4.26 914
4.28 906
4.3 902
4.32 913
4.34 874
4.36 882
4.38 902
4.4 882
4.42 873
4.44 892
4.46 862
4.48 856
4.5 855
4.52 868
4.54 859
4.56 820
4.58 928
4.6 895
4.62 854
4.64 858
4.66 901
4.68 884
4.7 834
4.72 925
4.74 836
4.76 854
4.78 886
4.8 834
4.82 807
4.84 895
4.86 874
4.88 896
4.9 892
4.92 787
4.94 797
4.96 878
4.98 847
5 878
5.02 939
5.04 876
5.06 872
5.08 900
5.1 855
5.12 834
5.14 917
5.16 910
5.18 899
5.2 916
5.22 894
5.24 913
5.26 1017
5.28 1006
5.3 984
5.32 955
5.34 928
5.36 982
5.38 1074
5.4 992
5.42 1016
5.44 1085
5.46 1055
5.48 1078
5.5 1126
5.52 1149
5.54 1210
5.56 1256
5.58 1309
5.6 1376
5.62 1349
5.64 1455
5.66 1518
5.68 1717
5.7 1862
5.72 1980
5.74 2250
5.76 2424
5.78 2520
5.8 2731
5.82 2864
5.84 2939
5.86 2772
5.88 2223
5.9 1666
5.92 1416
5.94 1291
5.96 1020
5.98 948
6 859
6.02 884
6.04 877
6.06 867
6.08 842
6.1 825
6.12 823
6.14 784
6.16 818
6.18 801
6.2 884
6.22 872
6.24 828
6.26 824
6.28 825
6.3 853
6.32 808
6.34 826
6.36 885
6.38 922
6.4 874
6.42 923
6.44 918
6.46 966
6.48 983
6.5 1070
6.52 1025
6.54 1110
6.56 1173
6.58 1210
6.6 1286
6.62 1490
6.64 1509
6.66 1531
6.68 1652
6.7 1798
6.72 1875
6.74 1684
6.76 1490
6.78 1189
6.8 1060
6.82 943
6.84 875
6.86 749
6.88 777
6.9 727
6.92 727
6.94 708
6.96 767
6.98 678
7 738
7.02 791
7.04 743
7.06 762
7.08 713
7.1 720
7.12 746
7.14 693
7.16 734
7.18 678
7.2 722
7.22 687
7.24 716
7.26 737
7.28 704
7.3 678
7.32 702
7.34 677
7.36 679
7.38 677
7.4 677
7.42 681
7.44 688
7.46 672
7.48 686
7.5 685
7.52 718
7.54 693
7.56 730
7.58 745
7.6 698
7.62 735
7.64 746
7.66 718
7.68 703
7.7 742
7.72 690
7.74 703
7.76 686
7.78 674
7.8 674
7.82 670
7.84 672
7.86 679
7.88 677
7.9 719
7.92 722
7.94 681
7.96 668
7.98 720
8 669
8.02 660
8.04 684
8.06 704
8.08 655
8.1 688
8.12 738
8.14 692
8.16 722
8.18 712
8.2 672
8.22 674
8.24 682
8.26 702
8.28 703
8.3 724
8.32 699
8.34 662
8.36 696
8.38 663
8.4 697
8.42 703
8.44 701
8.46 669
8.48 670
8.5 669
8.52 693
8.54 744
8.56 716
8.58 685
8.6 701
8.62 716
8.64 720
8.66 701
8.68 706
8.7 715
8.72 694
8.74 681
8.76 666
8.78 689
8.8 669
8.82 696
8.84 706
8.86 677
8.88 699
8.9 700
8.92 646
8.94 706
8.96 687
8.98 707
9 734
9.02 717
9.04 720
9.06 802
9.08 756
9.1 730
9.12 744
9.14 725
9.16 743
9.18 748
9.2 804
9.22 778
9.24 826
9.26 833
9.28 863
9.3 913
9.32 997
9.34 1007
9.36 1151
9.38 1131
9.4 1212
9.42 1294
9.44 1276
9.46 1313
9.48 1174
9.5 1003
9.52 932
9.54 878
9.56 809
9.58 746
9.6 721
9.62 722
9.64 708
9.66 716
9.68 736
9.7 674
9.72 676
9.74 676
9.76 693
9.78 664
9.8 683
9.82 718
9.84 669
9.86 700
9.88 694
9.9 697
9.92 691
9.94 693
9.96 663
9.98 694
10 690
10.02 682
10.04 710
10.06 682
10.08 676
10.1 692
10.12 710
10.14 683
10.16 665
10.18 705
10.2 697
10.22 734
10.24 668
10.26 669
10.28 705
10.3 735
10.32 637
10.34 668
10.36 688
10.38 705
10.4 683
10.42 716
10.44 749
10.46 688
10.48 666
10.5 750
10.52 717
10.54 704
10.56 688
10.58 695
10.6 675
10.62 674
10.64 720
10.66 716
10.68 802
10.7 748
10.72 758
10.74 802
10.76 770
10.78 736
10.8 741
10.82 780
10.84 798
10.86 822
10.88 852
10.9 938
10.92 940
10.94 988
10.96 1100
10.98 1128
11 1140
11.02 1212
11.04 1244
11.06 1359
11.08 1278
11.1 1141
11.12 969
11.14 925
11.16 833
11.18 825
11.2 827
11.22 784
11.24 726
11.26 713
11.28 782
11.3 778
11.32 769
11.34 739
11.36 820
11.38 750
11.4 757
11.42 858
11.44 910
11.46 877
11.48 884
11.5 946
11.52 1007
11.54 973
11.56 985
11.58 880
11.6 804
11.62 761
11.64 793
11.66 757
11.68 732
11.7 739
11.72 692
11.74 733
11.76 708
11.78 715
11.8 749
11.82 715
11.84 700
11.86 687
11.88 748
11.9 693
11.92 732
11.94 700
11.96 712
11.98 748
12 685
12.02 669
12.04 712
12.06 653
12.08 713
12.1 695
12.12 682
12.14 710
12.16 742
12.18 731
12.2 752
12.22 704
12.24 708
12.26 745
12.28 728
12.3 701
12.32 719
12.34 695
12.36 721
12.38 713
12.4 695
12.42 756
12.44 734
12.46 765
12.48 705
12.5 737
12.52 726
12.54 721
12.56 733
12.58 733
12.6 689
12.62 699
12.64 664
12.66 749
12.68 769
12.7 756
12.72 756
12.74 678
12.76 731
12.78 698
12.8 703
12.82 716
12.84 725
12.86 703
12.88 728
12.9 746
12.92 677
12.94 729
12.96 765
12.98 691
13 717
13.02 749
13.04 741
13.06 760
13.08 705
13.1 709
13.12 724
13.14 784
13.16 824
13.18 771
13.2 777
13.22 805
13.24 833
13.26 833
13.28 800
13.3 803
13.32 869
13.34 837
13.36 846
13.38 847
13.4 812
13.42 784
13.44 786
13.46 768
13.48 764
13.5 773
13.52 735
13.54 740
13.56 726
13.58 768
13.6 736
13.62 750
13.64 688
13.66 770
13.68 764
13.7 735
13.72 752
13.74 732
13.76 778
13.78 741
13.8 741
13.82 773
13.84 758
13.86 785
13.88 766
13.9 765
13.92 733
13.94 746
13.96 759
13.98 753
14 796
14.02 782
14.04 743
14.06 788
14.08 779
14.1 780
14.12 827
14.14 770
14.16 771
14.18 795
14.2 809
14.22 771
14.24 783
14.26 771
14.28 788
14.3 839
14.32 807
14.34 804
14.36 826
14.38 842
14.4 907
14.42 873
14.44 865
14.46 840
14.48 905
14.5 918
14.52 955
14.54 913
14.56 835
14.58 830
14.6 798
14.62 835
14.64 873
14.66 827
14.68 810
14.7 808
14.72 824
14.74 821
14.76 839
14.78 844
14.8 838
14.82 845
14.84 891
14.86 860
14.88 822
14.9 835
14.92 775
14.94 848
14.96 830
14.98 889
15 831
15.02 868
15.04 846
15.06 822
15.08 860
15.1 844
15.12 877
15.14 909
15.16 859
15.18 872
15.2 819
15.22 878
15.24 846
15.26 845
15.28 885
15.3 842
15.32 887
15.34 838
15.36 854
15.38 900
15.4 895
15.42 878
15.44 869
15.46 933
15.48 877
15.5 865
15.52 915
15.54 862
15.56 859
15.58 848
15.6 920
15.62 904
15.64 882
15.66 887
15.68 873
15.7 852
15.72 942
15.74 859
15.76 928
15.78 922
15.8 919
15.82 901
15.84 883
15.86 914
15.88 953
15.9 941
15.92 930
15.94 931
15.96 881
15.98 947
16 975
16.02 922
16.04 981
16.06 918
16.08 936
16.1 932
16.12 1026
16.14 968
16.16 921
16.18 981
16.2 957
16.22 955
16.24 949
16.26 920
16.28 954
16.3 949
16.32 1024
16.34 964
16.36 978
16.38 961
16.4 973
16.42 982
16.44 995
16.46 1002
16.48 969
16.5 1033
16.52 1045
16.54 1006
16.56 1004
16.58 1009
16.6 1043
16.62 974
16.64 1057
16.66 1042
16.68 1049
16.7 1068
16.72 1017
16.74 1100
16.76 1094
16.78 1024
16.8 1108
16.82 1052
16.84 1106
16.86 1137
16.88 1110
16.9 1054
16.92 1092
16.94 1190
16.96 1149
16.98 1142
17 1195
17.02 1194
17.04 1161
17.06 1165
17.08 1182
17.1 1185
17.12 1160
17.14 1139
17.16 1125
17.18 1193
17.2 1164
17.22 1195
17.24 1158
17.26 1191
17.28 1246
17.3 1207
17.32 1208
17.34 1180
17.36 1169
17.38 1169
17.4 1124
17.42 1163
17.44 1132
17.46 1125
17.48 1174
17.5 1187
17.52 1120
17.54 1168
17.56 1161
17.58 1208
17.6 1157
17.62 1141
17.64 1159
17.66 1167
17.68 1132
17.7 1214
17.72 1107
17.74 1235
17.76 1228
17.78 1221
17.8 1159
17.82 1205
17.84 1225
17.86 1204
17.88 1230
17.9 1253
17.92 1257
17.94 1322
17.96 1234
17.98 1227
18 1263
18.02 1262
18.04 1289
18.06 1261
18.08 1213
18.1 1232
18.12 1220
18.14 1243
18.16 1274
18.18 1273
18.2 1275
18.22 1212
18.24 1258
18.26 1312
18.28 1290
18.3 1347
18.32 1272
18.34 1321
18.36 1373
18.38 1265
18.4 1290
18.42 1292
18.44 1306
18.46 1320
18.48 1326
18.5 1356
18.52 1370
18.54 1355
18.56 1333
18.58 1331
18.6 1442
18.62 1346
18.64 1351
18.66 1395
18.68 1358
18.7 1368
18.72 1350
18.74 1387
18.76 1376
18.78 1396
18.8 1396
18.82 1415
18.84 1378
18.86 1374
18.88 1435
18.9 1351
18.92 1377
18.94 1431
18.96 1377
18.98 1382
19 1375
19.02 1514
19.04 1358
19.06 1487
19.08 1485
19.1 1520
19.12 1477
19.14 1474
19.16 1546
19.18 1434
19.2 1448
19.22 1447
19.24 1488
19.26 1517
19.28 1483
19.3 1413
19.32 1485
19.34 1409
19.36 1471
19.38 1431
19.4 1548
19.42 1569
19.44 1577
19.46 1480
19.48 1465
19.5 1618
19.52 1576
19.54 1685
19.56 1708
19.58 1744
19.6 1766
19.62 1835
19.64 1885
19.66 1877
19.68 1818
19.7 1886
19.72 1761
19.74 1739
19.76 1728
19.78 1642
19.8 1734
19.82 1713
19.84 1828
19.86 1822
19.88 1938
19.9 1918
19.92 2067
19.94 2048
19.96 1947
19.98 2022
20 1956
20.02 1823
20.04 1742
20.06 1683
20.08 1674
20.1 1569
20.12 1569
20.14 1539
20.16 1581
20.18 1600
20.2 1642
20.22 1606
20.24 1663
20.26 1667
20.28 1604
20.3 1539
20.32 1628
20.34 1622
20.36 1632
20.38 1683
20.4 1632
20.42 1640
20.44 1616
20.46 1643
20.48 1598
20.5 1628
20.52 1542
20.54 1578
20.56 1614
20.58 1600
20.6 1648
20.62 1597
20.64 1632
20.66 1661
20.68 1672
20.7 1673
20.72 1608
20.74 1645
20.76 1695
20.78 1653
20.8 1618
20.82 1664
20.84 1632
20.86 1624
20.88 1556
20.9 1593
20.92 1653
20.94 1571
20.96 1636
20.98 1665
21 1600
21.02 1666
21.04 1605
21.06 1603
21.08 1684
21.1 1629
21.12 1670
21.14 1636
21.16 1628
21.18 1602
21.2 1620
21.22 1623
21.24 1607
21.26 1592
21.28 1619
21.3 1587
21.32 1664
21.34 1657
21.36 1615
21.38 1627
21.4 1664
21.42 1683
21.44 1585
21.46 1649
21.48 1705
21.5 1652
21.52 1631
21.54 1632
21.56 1670
21.58 1605
21.6 1736
21.62 1648
21.64 1682
21.66 1689
21.68 1706
21.7 1669
21.72 1668
21.74 1724
21.76 1742
21.78 1718
21.8 1756
21.82 1733
21.84 1756
21.86 1776
21.88 1679
21.9 1712
21.92 1683
21.94 1658
21.96 1653
21.98 1620
22 1610
22.02 1608
22.04 1622
22.06 1669
22.08 1673
22.1 1553
22.12 1606
22.14 1525
22.16 1580
22.18 1617
22.2 1593
22.22 1617
22.24 1561
22.26 1550
22.28 1580
22.3 1602
22.32 1527
22.34 1500
22.36 1587
22.38 1504
22.4 1532
22.42 1573
22.44 1568
22.46 1569
22.48 1492
22.5 1530
22.52 1571
22.54 1581
22.56 1512
22.58 1540
22.6 1480
22.62 1471
22.64 1456
22.66 1511
22.68 1516
22.7 1518
22.72 1505
22.74 1494
22.76 1536
22.78 1504
22.8 1498
22.82 1468
22.84 1529
22.86 1505
22.88 1506
22.9 1484
22.92 1537
22.94 1457
22.96 1508
22.98 1519
23 1477
23.02 1505
23.04 1498
23.06 1572
23.08 1476
23.1 1543
23.12 1500
23.14 1451
23.16 1470
23.18 1476
23.2 1523
23.22 1430
23.24 1429
23.26 1409
23.28 1431
23.3 1411
23.32 1415
23.34 1439
23.36 1415
23.38 1403
23.4 1459
23.42 1484
23.44 1405
23.46 1332
23.48 1378
23.5 1384
23.52 1319
23.54 1424
23.56 1473
23.58 1419
23.6 1417
23.62 1446
23.64 1503
23.66 1586
23.68 1574
23.7 1616
23.72 1750
23.74 1794
23.76 1758
23.78 1693
23.8 1726
23.82 1621
23.84 1599
23.86 1565
23.88 1495
23.9 1424
23.92 1457
23.94 1413
23.96 1378
23.98 1379
24 1409
24.02 1334
24.04 1326
24.06 1336
24.08 1298
24.1 1305
24.12 1323
24.14 1294
24.16 1231
24.18 1310
24.2 1284
24.22 1232
24.24 1309
24.26 1251
24.28 1280
24.3 1228
24.32 1310
24.34 1303
24.36 1209
24.38 1253
24.4 1231
24.42 1215
24.44 1291
24.46 1278
24.48 1271
24.5 1216
24.52 1273
24.54 1247
24.56 1254
24.58 1236
24.6 1306
24.62 1261
24.64 1321
24.66 1233
24.68 1251
24.7 1281
24.72 1251
24.74 1253
24.76 1279
24.78 1264
24.8 1334
24.82 1334
24.84 1396
24.86 1465
24.88 1370
24.9 1443
24.92 1520
24.94 1470
24.96 1457
24.98 1378
25 1268
25.02 1275
25.04 1233
25.06 1232
25.08 1179
25.1 1227
25.12 1191
25.14 1200
25.16 1212
25.18 1179
25.2 1176
25.22 1207
25.24 1193
25.26 1238
25.28 1196
25.3 1193
25.32 1245
25.34 1224
25.36 1194
25.38 1200
25.4 1216
25.42 1216
25.44 1239
25.46 1368
25.48 1341
25.5 1372
25.52 1464
25.54 1500
25.56 1558
25.58 1584
25.6 1504
25.62 1461
25.64 1336
25.66 1352
25.68 1243
25.7 1197
25.72 1170
25.74 1168
25.76 1130
25.78 1126
25.8 1088
25.82 1063
25.84 1120
25.86 1109
25.88 1129
25.9 1089
25.92 1037
25.94 1056
25.96 1059
25.98 1068
26 991
26.02 1005
26.04 1025
26.06 1091
26.08 1030
26.1 1066
26.12 1042
26.14 1099
26.16 1057
26.18 1016
26.2 1040
26.22 1008
26.24 1018
26.26 1004
26.28 1043
26.3 1066
26.32 999
26.34 1061
26.36 998
26.38 1003
26.4 1046
26.42 1009
26.44 1057
26.46 1087
26.48 1038
26.5 1107
26.52 1072
26.54 1118
26.56 1172
26.58 1228
26.6 1249
26.62 1285
26.64 1370
26.66 1332
26.68 1287
26.7 1300
26.72 1204
26.74 1158
26.76 1194
26.78 1110
26.8 1098
26.82 1116
26.84 1060
26.86 1046
26.88 1031
26.9 1073
26.92 1140
26.94 1051
26.96 1127
26.98 1075
27 1026
27.02 1104
27.04 1033
27.06 958
27.08 998
27.1 1003
27.12 1008
27.14 975
27.16 981
27.18 943
27.2 948
27.22 984
27.24 986
27.26 962
27.28 975
27.3 984
27.32 999
27.34 1028
27.36 1080
27.38 1129
27.4 1166
27.42 1195
27.44 1282
27.46 1288
27.48 1293
27.5 1278
27.52 1272
27.54 1201
27.56 1141
27.58 1153
27.6 1056
27.62 980
27.64 1005
27.66 952
27.68 979
27.7 920
27.72 931
27.74 939
27.76 875
27.78 938
27.8 979
27.82 921
27.84 897
27.86 923
27.88 917
27.9 944
27.92 867
27.94 864
27.96 934
27.98 903
28 932
28.02 932
28.04 943
28.06 979
28.08 946
28.1 874
28.12 964
28.14 1029
28.16 989
28.18 999
28.2 1003
28.22 1065
28.24 1051
28.26 1021
28.28 1049
28.3 985
28.32 995
28.34 997
28.36 998
28.38 955
28.4 926
28.42 929
28.44 907
28.46 903
28.48 932
28.5 880
28.52 906
28.54 943
28.56 913
28.58 922
28.6 893
28.62 884
28.64 892
28.66 916
28.68 950
28.7 907
28.72 1006
28.74 931
28.76 1029
28.78 981
28.8 1093
28.82 1137
28.84 1159
28.86 1137
28.88 1164
28.9 1285
28.92 1219
28.94 1152
28.96 1103
28.98 1150
29 1175
29.02 1122
29.04 1196
29.06 1138
29.08 1135
29.1 1172
29.12 1161
29.14 1055
29.16 1091
29.18 963
29.2 982
29.22 946
29.24 878
29.26 850
29.28 870
29.3 891
29.32 928
29.34 857
29.36 882
29.38 854
29.4 806
29.42 879
29.44 842
29.46 840
29.48 882
29.5 855
29.52 819
29.54 858
29.56 814
29.58 848
29.6 861
29.62 832
29.64 832
29.66 827
29.68 884
29.7 874
29.72 865
29.74 850
29.76 826
29.78 877
29.8 809
29.82 849
29.84 842
29.86 874
29.88 825
29.9 786
29.92 792
29.94 848
29.96 830
29.98 828
30 791