File: xrd-UiO-67/pxrddata/3-1.ASC
3 2191
3.02 1969
3.04 1861
3.06 1684
3.08 1672
3.1 1544
3.12 1501
3.14 1518
3.16 1488
3.18 1467
3.2 1421
3.22 1392
3.24 1440
3.26 1379
3.28 1388
3.3 1371
3.32 1313
3.34 1348
3.36 1322
3.38 1317
3.4 1306
3.42 1352
3.44 1353
3.46 1255
3.48 1240
3.5 1280
3.52 1232
3.54 1238
3.56 1236
3.58 1160
3.6 1168
3.62 1094
3.64 1215
3.66 1112
3.68 1186
3.7 1078
3.72 1135
3.74 1083
3.76 1115
3.78 1095
3.8 1036
3.82 1122
3.84 1102
3.86 1090
3.88 1050
3.9 1086
3.92 1081
3.94 1081
3.96 1143
3.98 1011
4 1072
4.02 1059
4.04 999
4.06 1013
4.08 999
4.1 1045
4.12 1011
4.14 986
4.16 1037
4.18 1001
4.2 1006
4.22 999
4.24 993
4.26 1024
4.28 1007
4.3 960
4.32 1008
4.34 987
4.36 986
4.38 902
4.4 931
4.42 993
4.44 943
4.46 956
4.48 891
4.5 984
4.52 960
4.54 922
4.56 901
4.58 905
4.6 915
4.62 956
4.64 954
4.66 931
4.68 919
4.7 892
4.72 901
4.74 941
4.76 887
4.78 1031
4.8 954
4.82 906
4.84 879
4.86 869
4.88 921
4.9 917
4.92 922
4.94 957
4.96 957
4.98 943
5 931
5.02 954
5.04 960
5.06 913
5.08 893
5.1 946
5.12 921
5.14 940
5.16 1009
5.18 933
5.2 1008
5.22 934
5.24 960
5.26 929
5.28 1010
5.3 998
5.32 1000
5.34 977
5.36 1014
5.38 982
5.4 1076
5.42 1055
5.44 1003
5.46 1047
5.48 1121
5.5 1143
5.52 1184
5.54 1115
5.56 1173
5.58 1230
5.6 1262
5.62 1293
5.64 1358
5.66 1418
5.68 1395
5.7 1493
5.72 1623
5.74 1737
5.76 1817
5.78 1965
5.8 2171
5.82 2454
5.84 2770
5.86 2916
5.88 2652
5.9 1960
5.92 1240
5.94 1011
5.96 874
5.98 921
6 939
6.02 839
6.04 860
6.06 864
6.08 888
6.1 909
6.12 852
6.14 869
6.16 853
6.18 895
6.2 828
6.22 904
6.24 827
6.26 891
6.28 871
6.3 838
6.32 926
6.34 914
6.36 867
6.38 898
6.4 914
6.42 929
6.44 930
6.46 993
6.48 1005
6.5 1004
6.52 1027
6.54 998
6.56 1067
6.58 1160
6.6 1189
6.62 1231
6.64 1377
6.66 1387
6.68 1481
6.7 1685
6.72 1868
6.74 1922
6.76 1890
6.78 1490
6.8 938
6.82 808
6.84 789
6.86 779
6.88 728
6.9 787
6.92 770
6.94 761
6.96 776
6.98 759
7 746
7.02 806
7.04 727
7.06 694
7.08 710
7.1 721
7.12 704
7.14 730
7.16 777
7.18 714
7.2 757
7.22 705
7.24 670
7.26 714
7.28 751
7.3 751
7.32 720
7.34 742
7.36 673
7.38 720
7.4 686
7.42 729
7.44 706
7.46 683
7.48 678
7.5 706
7.52 715
7.54 708
7.56 665
7.58 710
7.6 759
7.62 688
7.64 671
7.66 685
7.68 686
7.7 724
7.72 742
7.74 725
7.76 692
7.78 710
7.8 722
7.82 725
7.84 748
7.86 754
7.88 702
7.9 743
7.92 686
7.94 686
7.96 676
7.98 696
8 696
8.02 701
8.04 715
8.06 688
8.08 668
8.1 668
8.12 696
8.14 690
8.16 695
8.18 693
8.2 693
8.22 693
8.24 716
8.26 681
8.28 670
8.3 696
8.32 683
8.34 744
8.36 718
8.38 722
8.4 689
8.42 716
8.44 720
8.46 726
8.48 746
8.5 709
8.52 696
8.54 723
8.56 684
8.58 700
8.6 734
8.62 722
8.64 686
8.66 704
8.68 731
8.7 691
8.72 694
8.74 698
8.76 724
8.78 722
8.8 693
8.82 703
8.84 745
8.86 711
8.88 762
8.9 728
8.92 725
8.94 748
8.96 730
8.98 698
9 747
9.02 784
9.04 773
9.06 762
9.08 739
9.1 780
9.12 812
9.14 799
9.16 758
9.18 828
9.2 809
9.22 864
9.24 864
9.26 883
9.28 910
9.3 957
9.32 995
9.34 1029
9.36 1139
9.38 1212
9.4 1277
9.42 1375
9.44 1573
9.46 1686
9.48 1633
9.5 1380
9.52 1135
9.54 832
9.56 735
9.58 711
9.6 796
9.62 708
9.64 734
9.66 694
9.68 672
9.7 756
9.72 723
9.74 717
9.76 718
9.78 720
9.8 718
9.82 719
9.84 724
9.86 741
9.88 662
9.9 775
9.92 699
9.94 677
9.96 722
9.98 716
10 710
10.02 755
10.04 697
10.06 692
10.08 701
10.1 666
10.12 755
10.14 723
10.16 730
10.18 685
10.2 692
10.22 771
10.24 707
10.26 743
10.28 732
10.3 721
10.32 710
10.34 720
10.36 713
10.38 737
10.4 702
10.42 750
10.44 722
10.46 688
10.48 683
10.5 764
10.52 706
10.54 695
10.56 724
10.58 710
10.6 730
10.62 740
10.64 764
10.66 767
10.68 803
10.7 746
10.72 781
10.74 794
10.76 814
10.78 773
10.8 807
10.82 872
10.84 898
10.86 897
10.88 968
10.9 941
10.92 1040
10.94 1078
10.96 1169
10.98 1262
11 1323
11.02 1415
11.04 1552
11.06 1663
11.08 1649
11.1 1592
11.12 1270
11.14 1020
11.16 815
11.18 774
11.2 777
11.22 821
11.24 807
11.26 801
11.28 807
11.3 772
11.32 778
11.34 803
11.36 879
11.38 816
11.4 883
11.42 890
11.44 927
11.46 942
11.48 1045
11.5 1079
11.52 1160
11.54 1177
11.56 1158
11.58 1191
11.6 1090
11.62 888
11.64 844
11.66 767
11.68 767
11.7 737
11.72 770
11.74 737
11.76 776
11.78 736
11.8 788
11.82 743
11.84 749
11.86 753
11.88 774
11.9 736
11.92 767
11.94 707
11.96 750
11.98 735
12 765
12.02 748
12.04 758
12.06 789
12.08 743
12.1 777
12.12 769
12.14 755
12.16 751
12.18 770
12.2 786
12.22 727
12.24 739
12.26 734
12.28 761
12.3 733
12.32 721
12.34 762
12.36 747
12.38 790
12.4 740
12.42 769
12.44 795
12.46 784
12.48 737
12.5 774
12.52 739
12.54 761
12.56 718
12.58 749
12.6 754
12.62 729
12.64 763
12.66 710
12.68 763
12.7 791
12.72 768
12.74 770
12.76 816
12.78 774
12.8 764
12.82 740
12.84 792
12.86 775
12.88 845
12.9 763
12.92 792
12.94 829
12.96 775
12.98 766
13 797
13.02 806
13.04 778
13.06 794
13.08 762
13.1 844
13.12 823
13.14 830
13.16 845
13.18 845
13.2 858
13.22 920
13.24 898
13.26 912
13.28 955
13.3 989
13.32 1000
13.34 952
13.36 947
13.38 863
13.4 854
13.42 824
13.44 859
13.46 806
13.48 825
13.5 805
13.52 803
13.54 823
13.56 791
13.58 787
13.6 816
13.62 780
13.64 776
13.66 819
13.68 809
13.7 782
13.72 842
13.74 869
13.76 857
13.78 841
13.8 834
13.82 829
13.84 850
13.86 799
13.88 790
13.9 777
13.92 839
13.94 828
13.96 866
13.98 794
14 813
14.02 793
14.04 817
14.06 864
14.08 841
14.1 843
14.12 909
14.14 812
14.16 885
14.18 883
14.2 858
14.22 865
14.24 854
14.26 875
14.28 866
14.3 903
14.32 900
14.34 942
14.36 915
14.38 917
14.4 952
14.42 921
14.44 923
14.46 1019
14.48 1045
14.5 1060
14.52 1041
14.54 1054
14.56 1055
14.58 931
14.6 887
14.62 964
14.64 906
14.66 888
14.68 978
14.7 889
14.72 880
14.74 913
14.76 928
14.78 984
14.8 918
14.82 979
14.84 958
14.86 914
14.88 923
14.9 910
14.92 1000
14.94 938
14.96 913
14.98 882
15 932
15.02 968
15.04 953
15.06 894
15.08 914
15.1 945
15.12 945
15.14 939
15.16 897
15.18 966
15.2 957
15.22 952
15.24 946
15.26 977
15.28 994
15.3 986
15.32 958
15.34 919
15.36 938
15.38 997
15.4 992
15.42 987
15.44 999
15.46 1005
15.48 976
15.5 968
15.52 985
15.54 975
15.56 992
15.58 1024
15.6 986
15.62 972
15.64 958
15.66 950
15.68 1017
15.7 1005
15.72 1076
15.74 1002
15.76 992
15.78 990
15.8 1059
15.82 1038
15.84 1030
15.86 1070
15.88 1085
15.9 1060
15.92 1052
15.94 1082
15.96 1080
15.98 1036
16 1048
16.02 1048
16.04 1001
16.06 1050
16.08 1009
16.1 1054
16.12 1093
16.14 1118
16.16 1089
16.18 1114
16.2 1074
16.22 1076
16.24 1103
16.26 1130
16.28 1100
16.3 1126
16.32 1133
16.34 1086
16.36 1064
16.38 1113
16.4 1124
16.42 1118
16.44 1063
16.46 1054
16.48 1183
16.5 1110
16.52 1107
16.54 1120
16.56 1146
16.58 1119
16.6 1206
16.62 1157
16.64 1253
16.66 1167
16.68 1167
16.7 1146
16.72 1177
16.74 1213
16.76 1150
16.78 1132
16.8 1173
16.82 1190
16.84 1206
16.86 1182
16.88 1179
16.9 1181
16.92 1220
16.94 1268
16.96 1256
16.98 1283
17 1311
17.02 1256
17.04 1275
17.06 1243
17.08 1294
17.1 1299
17.12 1291
17.14 1310
17.16 1286
17.18 1380
17.2 1401
17.22 1457
17.24 1485
17.26 1432
17.28 1454
17.3 1481
17.32 1538
17.34 1458
17.36 1379
17.38 1323
17.4 1340
17.42 1377
17.44 1259
17.46 1314
17.48 1277
17.5 1292
17.52 1384
17.54 1340
17.56 1332
17.58 1361
17.6 1382
17.62 1323
17.64 1431
17.66 1366
17.68 1361
17.7 1376
17.72 1419
17.74 1466
17.76 1443
17.78 1398
17.8 1386
17.82 1475
17.84 1423
17.86 1403
17.88 1462
17.9 1439
17.92 1460
17.94 1435
17.96 1374
17.98 1476
18 1488
18.02 1575
18.04 1478
18.06 1464
18.08 1480
18.1 1461
18.12 1513
18.14 1456
18.16 1514
18.18 1588
18.2 1558
18.22 1464
18.24 1510
18.26 1446
18.28 1461
18.3 1494
18.32 1492
18.34 1474
18.36 1551
18.38 1556
18.4 1529
18.42 1548
18.44 1542
18.46 1570
18.48 1571
18.5 1536
18.52 1560
18.54 1589
18.56 1574
18.58 1601
18.6 1659
18.62 1553
18.64 1676
18.66 1545
18.68 1602
18.7 1689
18.72 1635
18.74 1662
18.76 1619
18.78 1529
18.8 1701
18.82 1629
18.84 1680
18.86 1675
18.88 1687
18.9 1663
18.92 1645
18.94 1722
18.96 1705
18.98 1647
19 1704
19.02 1593
19.04 1626
19.06 1710
19.08 1714
19.1 1767
19.12 1743
19.14 1720
19.16 1718
19.18 1749
19.2 1803
19.22 1709
19.24 1818
19.26 1756
19.28 1773
19.3 1838
19.32 1782
19.34 1711
19.36 1751
19.38 1792
19.4 1819
19.42 1828
19.44 1862
19.46 1805
19.48 1892
19.5 1901
19.52 1976
19.54 1933
19.56 2045
19.58 2144
19.6 2284
19.62 2264
19.64 2346
19.66 2442
19.68 2513
19.7 2480
19.72 2355
19.74 2253
19.76 2193
19.78 2194
19.8 2037
19.82 2064
19.84 2204
19.86 2369
19.88 2514
19.9 2538
19.92 2636
19.94 2704
19.96 2738
19.98 2690
20 2589
20.02 2330
20.04 2153
20.06 2137
20.08 1961
20.1 1892
20.12 1879
20.14 1878
20.16 1942
20.18 1922
20.2 1943
20.22 1821
20.24 1982
20.26 1925
20.28 1941
20.3 1898
20.32 1950
20.34 1846
20.36 1855
20.38 1973
20.4 1927
20.42 1868
20.44 1945
20.46 1966
20.48 1894
20.5 1906
20.52 1929
20.54 1979
20.56 1860
20.58 1921
20.6 1926
20.62 1983
20.64 1951
20.66 1890
20.68 1971
20.7 1909
20.72 1906
20.74 1930
20.76 1863
20.78 1974
20.8 1932
20.82 1981
20.84 1939
20.86 1931
20.88 2003
20.9 1908
20.92 1913
20.94 1929
20.96 2005
20.98 2015
21 1950
21.02 1914
21.04 1942
21.06 1871
21.08 1996
21.1 1914
21.12 1892
21.14 1919
21.16 1873
21.18 1963
21.2 1978
21.22 1957
21.24 1941
21.26 1976
21.28 1967
21.3 1927
21.32 1970
21.34 2015
21.36 1998
21.38 1980
21.4 1876
21.42 1917
21.44 1934
21.46 1891
21.48 1973
21.5 1975
21.52 1893
21.54 1960
21.56 1979
21.58 1871
21.6 1950
21.62 1942
21.64 1943
21.66 2023
21.68 2006
21.7 2035
21.72 2055
21.74 2122
21.76 2136
21.78 2150
21.8 2196
21.82 2226
21.84 2162
21.86 2113
21.88 2132
21.9 2027
21.92 1882
21.94 1936
21.96 1927
21.98 1912
22 1945
22.02 1865
22.04 1924
22.06 1880
22.08 1924
22.1 1949
22.12 1870
22.14 1948
22.16 1805
22.18 1901
22.2 1882
22.22 1921
22.24 1880
22.26 1893
22.28 1769
22.3 1915
22.32 1870
22.34 1855
22.36 1908
22.38 1889
22.4 1976
22.42 1876
22.44 1859
22.46 1859
22.48 1912
22.5 1834
22.52 1820
22.54 1773
22.56 1833
22.58 1852
22.6 1823
22.62 1847
22.64 1802
22.66 1836
22.68 1826
22.7 1846
22.72 1856
22.74 1847
22.76 1797
22.78 1822
22.8 1862
22.82 1766
22.84 1786
22.86 1782
22.88 1865
22.9 1813
22.92 1866
22.94 1857
22.96 1888
22.98 1854
23 1905
23.02 1967
23.04 1978
23.06 1865
23.08 1878
23.1 1875
23.12 1922
23.14 1767
23.16 1796
23.18 1708
23.2 1759
23.22 1738
23.24 1749
23.26 1808
23.28 1747
23.3 1708
23.32 1702
23.34 1731
23.36 1724
23.38 1707
23.4 1657
23.42 1714
23.44 1753
23.46 1707
23.48 1749
23.5 1686
23.52 1779
23.54 1786
23.56 1692
23.58 1773
23.6 1770
23.62 1781
23.64 1852
23.66 1895
23.68 1993
23.7 2186
23.72 2297
23.74 2399
23.76 2489
23.78 2489
23.8 2383
23.82 2314
23.84 2175
23.86 2006
23.88 1907
23.9 1727
23.92 1736
23.94 1751
23.96 1821
23.98 1753
24 1776
24.02 1788
24.04 1788
24.06 1791
24.08 1732
24.1 1741
24.12 1649
24.14 1623
24.16 1584
24.18 1630
24.2 1617
24.22 1640
24.24 1620
24.26 1646
24.28 1627
24.3 1583
24.32 1590
24.34 1643
24.36 1617
24.38 1632
24.4 1585
24.42 1587
24.44 1577
24.46 1570
24.48 1615
24.5 1594
24.52 1520
24.54 1582
24.56 1569
24.58 1564
24.6 1607
24.62 1602
24.64 1580
24.66 1556
24.68 1576
24.7 1619
24.72 1540
24.74 1577
24.76 1654
24.78 1673
24.8 1667
24.82 1792
24.84 1800
24.86 1979
24.88 1959
24.9 2026
24.92 2156
24.94 2066
24.96 1996
24.98 1910
25 1747
25.02 1709
25.04 1604
25.06 1583
25.08 1554
25.1 1500
25.12 1526
25.14 1503
25.16 1473
25.18 1506
25.2 1476
25.22 1608
25.24 1504
25.26 1628
25.28 1552
25.3 1496
25.32 1491
25.34 1505
25.36 1590
25.38 1513
25.4 1550
25.42 1589
25.44 1586
25.46 1657
25.48 1751
25.5 1900
25.52 2019
25.54 2219
25.56 2299
25.58 2458
25.6 2421
25.62 2267
25.64 2214
25.66 1885
25.68 1782
25.7 1694
25.72 1553
25.74 1565
25.76 1462
25.78 1510
25.8 1449
25.82 1402
25.84 1452
25.86 1403
25.88 1436
25.9 1429
25.92 1406
25.94 1371
25.96 1400
25.98 1491
26 1411
26.02 1428
26.04 1401
26.06 1442
26.08 1381
26.1 1418
26.12 1416
26.14 1405
26.16 1362
26.18 1384
26.2 1308
26.22 1436
26.24 1387
26.26 1391
26.28 1340
26.3 1411
26.32 1386
26.34 1319
26.36 1394
26.38 1413
26.4 1340
26.42 1372
26.44 1408
26.46 1356
26.48 1411
26.5 1451
26.52 1405
26.54 1484
26.56 1545
26.58 1649
26.6 1719
26.62 1788
26.64 1929
26.66 1937
26.68 1948
26.7 1906
26.72 1785
26.74 1664
26.76 1549
26.78 1489
26.8 1423
26.82 1388
26.84 1393
26.86 1339
26.88 1341
26.9 1345
26.92 1424
26.94 1363
26.96 1348
26.98 1290
27 1329
27.02 1331
27.04 1280
27.06 1315
27.08 1328
27.1 1314
27.12 1338
27.14 1307
27.16 1325
27.18 1396
27.2 1289
27.22 1313
27.24 1365
27.26 1307
27.28 1376
27.3 1404
27.32 1346
27.34 1349
27.36 1451
27.38 1518
27.4 1578
27.42 1687
27.44 1754
27.46 1872
27.48 1898
27.5 1976
27.52 1886
27.54 1795
27.56 1665
27.58 1565
27.6 1513
27.62 1411
27.64 1390
27.66 1386
27.68 1284
27.7 1187
27.72 1212
27.74 1317
27.76 1282
27.78 1278
27.8 1233
27.82 1309
27.84 1292
27.86 1279
27.88 1257
27.9 1241
27.92 1295
27.94 1275
27.96 1262
27.98 1249
28 1272
28.02 1251
28.04 1257
28.06 1294
28.08 1258
28.1 1200
28.12 1234
28.14 1350
28.16 1243
28.18 1274
28.2 1289
28.22 1382
28.24 1381
28.26 1458
28.28 1406
28.3 1449
28.32 1418
28.34 1361
28.36 1290
28.38 1362
28.4 1318
28.42 1337
28.44 1189
28.46 1176
28.48 1272
28.5 1245
28.52 1167
28.54 1241
28.56 1228
28.58 1203
28.6 1211
28.62 1227
28.64 1234
28.66 1237
28.68 1285
28.7 1312
28.72 1242
28.74 1304
28.76 1305
28.78 1393
28.8 1456
28.82 1512
28.84 1646
28.86 1673
28.88 1696
28.9 1741
28.92 1719
28.94 1706
28.96 1674
28.98 1652
29 1658
29.02 1665
29.04 1615
29.06 1696
29.08 1814
29.1 1851
29.12 1817
29.14 1701
29.16 1482
29.18 1431
29.2 1453
29.22 1285
29.24 1207
29.26 1212
29.28 1227
29.3 1203
29.32 1192
29.34 1181
29.36 1172
29.38 1222
29.4 1179
29.42 1143
29.44 1160
29.46 1160
29.48 1155
29.5 1186
29.52 1197
29.54 1181
29.56 1188
29.58 1194
29.6 1150
29.62 1247
29.64 1185
29.66 1105
29.68 1106
29.7 1147
29.72 1147
29.74 1127
29.76 1222
29.78 1193
29.8 1201
29.82 1186
29.84 1131
29.86 1142
29.88 1146
29.9 1172
29.92 1205
29.94 1219
29.96 1160
29.98 1202
30 1141