File: xrd-UiO-67/pxrddata/3-12.ASC
3 2119
3.02 1943
3.04 1870
3.06 1725
3.08 1622
3.1 1581
3.12 1556
3.14 1471
3.16 1540
3.18 1470
3.2 1478
3.22 1398
3.24 1379
3.26 1376
3.28 1441
3.3 1415
3.32 1348
3.34 1362
3.36 1337
3.38 1267
3.4 1267
3.42 1322
3.44 1353
3.46 1314
3.48 1283
3.5 1272
3.52 1335
3.54 1295
3.56 1223
3.58 1217
3.6 1198
3.62 1222
3.64 1234
3.66 1253
3.68 1286
3.7 1281
3.72 1258
3.74 1193
3.76 1290
3.78 1186
3.8 1222
3.82 1226
3.84 1219
3.86 1228
3.88 1201
3.9 1249
3.92 1169
3.94 1238
3.96 1323
3.98 1229
4 1374
4.02 1397
4.04 1350
4.06 1370
4.08 1434
4.1 1546
4.12 1648
4.14 1743
4.16 1637
4.18 1647
4.2 1527
4.22 1336
4.24 1212
4.26 1099
4.28 1068
4.3 1035
4.32 1009
4.34 1064
4.36 1031
4.38 1076
4.4 1130
4.42 1027
4.44 1067
4.46 1066
4.48 1045
4.5 1008
4.52 1048
4.54 1063
4.56 1072
4.58 1037
4.6 1098
4.62 1056
4.64 976
4.66 1055
4.68 1062
4.7 1029
4.72 1029
4.74 1093
4.76 1087
4.78 1073
4.8 1064
4.82 1157
4.84 1136
4.86 1105
4.88 1177
4.9 1183
4.92 1140
4.94 1150
4.96 1179
4.98 1229
5 1147
5.02 1178
5.04 1265
5.06 1260
5.08 1219
5.1 1296
5.12 1297
5.14 1343
5.16 1424
5.18 1395
5.2 1412
5.22 1556
5.24 1531
5.26 1607
5.28 1723
5.3 1788
5.32 1811
5.34 1847
5.36 1987
5.38 2120
5.4 2273
5.42 2582
5.44 2941
5.46 2938
5.48 2907
5.5 2839
5.52 2498
5.54 2047
5.56 1931
5.58 1895
5.6 1997
5.62 2138
5.64 2221
5.66 2375
5.68 2500
5.7 2741
5.72 2930
5.74 3213
5.76 3657
5.78 4325
5.8 5274
5.82 6077
5.84 5654
5.86 5036
5.88 4195
5.9 2488
5.92 1387
5.94 1154
5.96 1027
5.98 969
6 956
6.02 922
6.04 926
6.06 927
6.08 878
6.1 822
6.12 851
6.14 875
6.16 853
6.18 864
6.2 835
6.22 816
6.24 791
6.26 848
6.28 823
6.3 752
6.32 833
6.34 826
6.36 813
6.38 805
6.4 808
6.42 920
6.44 848
6.46 850
6.48 808
6.5 820
6.52 862
6.54 874
6.56 846
6.58 887
6.6 871
6.62 958
6.64 939
6.66 921
6.68 980
6.7 1013
6.72 964
6.74 1029
6.76 1086
6.78 1120
6.8 1339
6.82 1325
6.84 1230
6.86 1126
6.88 956
6.9 842
6.92 760
6.94 755
6.96 765
6.98 773
7 759
7.02 739
7.04 672
7.06 740
7.08 721
7.1 713
7.12 712
7.14 670
7.16 678
7.18 713
7.2 713
7.22 672
7.24 694
7.26 719
7.28 694
7.3 696
7.32 665
7.34 676
7.36 703
7.38 704
7.4 752
7.42 750
7.44 700
7.46 676
7.48 667
7.5 676
7.52 692
7.54 695
7.56 672
7.58 688
7.6 677
7.62 674
7.64 731
7.66 724
7.68 674
7.7 685
7.72 673
7.74 714
7.76 709
7.78 687
7.8 695
7.82 708
7.84 671
7.86 723
7.88 710
7.9 712
7.92 710
7.94 721
7.96 676
7.98 719
8 661
8.02 708
8.04 754
8.06 739
8.08 760
8.1 751
8.12 787
8.14 738
8.16 810
8.18 816
8.2 860
8.22 847
8.24 853
8.26 752
8.28 715
8.3 676
8.32 704
8.34 690
8.36 661
8.38 687
8.4 698
8.42 671
8.44 688
8.46 729
8.48 702
8.5 703
8.52 695
8.54 669
8.56 666
8.58 693
8.6 699
8.62 697
8.64 686
8.66 739
8.68 685
8.7 668
8.72 724
8.74 696
8.76 716
8.78 676
8.8 713
8.82 749
8.84 717
8.86 701
8.88 701
8.9 759
8.92 704
8.94 683
8.96 737
8.98 780
9 746
9.02 815
9.04 780
9.06 834
9.08 819
9.1 875
9.12 859
9.14 884
9.16 939
9.18 1016
9.2 1017
9.22 1061
9.24 1135
9.26 1194
9.28 1267
9.3 1447
9.32 1599
9.34 1861
9.36 2173
9.38 2391
9.4 2330
9.42 2121
9.44 1597
9.46 1175
9.48 904
9.5 761
9.52 750
9.54 770
9.56 733
9.58 761
9.6 691
9.62 720
9.64 732
9.66 714
9.68 697
9.7 733
9.72 720
9.74 741
9.76 765
9.78 786
9.8 773
9.82 805
9.84 798
9.86 774
9.88 783
9.9 776
9.92 790
9.94 735
9.96 805
9.98 808
10 777
10.02 839
10.04 810
10.06 909
10.08 881
10.1 921
10.12 953
10.14 962
10.16 1009
10.18 1151
10.2 1243
10.22 1388
10.24 1391
10.26 1314
10.28 1156
10.3 934
10.32 789
10.34 742
10.36 753
10.38 752
10.4 776
10.42 734
10.44 765
10.46 765
10.48 769
10.5 729
10.52 740
10.54 806
10.56 761
10.58 763
10.6 788
10.62 835
10.64 850
10.66 841
10.68 839
10.7 837
10.72 950
10.74 957
10.76 1018
10.78 1086
10.8 1226
10.82 1268
10.84 1301
10.86 1211
10.88 1186
10.9 1096
10.92 1142
10.94 1261
10.96 1361
10.98 1612
11 1849
11.02 1944
11.04 1764
11.06 1512
11.08 1086
11.1 921
11.12 812
11.14 766
11.16 786
11.18 731
11.2 749
11.22 794
11.24 768
11.26 800
11.28 741
11.3 793
11.32 797
11.34 780
11.36 787
11.38 811
11.4 838
11.42 831
11.44 923
11.46 970
11.48 997
11.5 1035
11.52 1165
11.54 1334
11.56 1427
11.58 1427
11.6 1252
11.62 1139
11.64 895
11.66 759
11.68 740
11.7 759
11.72 728
11.74 766
11.76 722
11.78 776
11.8 718
11.82 765
11.84 719
11.86 774
11.88 703
11.9 700
11.92 711
11.94 746
11.96 765
11.98 806
12 753
12.02 751
12.04 798
12.06 784
12.08 869
12.1 753
12.12 781
12.14 826
12.16 872
12.18 893
12.2 914
12.22 991
12.24 1056
12.26 1129
12.28 1108
12.3 1005
12.32 975
12.34 836
12.36 839
12.38 748
12.4 822
12.42 760
12.44 796
12.46 849
12.48 814
12.5 740
12.52 704
12.54 753
12.56 743
12.58 801
12.6 774
12.62 731
12.64 756
12.66 769
12.68 765
12.7 788
12.72 761
12.74 724
12.76 776
12.78 701
12.8 706
12.82 797
12.84 786
12.86 774
12.88 775
12.9 803
12.92 743
12.94 726
12.96 791
12.98 755
13 779
13.02 760
13.04 816
13.06 775
13.08 787
13.1 817
13.12 822
13.14 790
13.16 830
13.18 757
13.2 761
13.22 771
13.24 788
13.26 762
13.28 832
13.3 809
13.32 864
13.34 859
13.36 910
13.38 909
13.4 967
13.42 953
13.44 863
13.46 920
13.48 915
13.5 881
13.52 872
13.54 918
13.56 836
13.58 904
13.6 891
13.62 831
13.64 806
13.66 800
13.68 792
13.7 824
13.72 815
13.74 795
13.76 817
13.78 797
13.8 802
13.82 800
13.84 792
13.86 799
13.88 823
13.9 803
13.92 794
13.94 752
13.96 829
13.98 832
14 803
14.02 788
14.04 834
14.06 851
14.08 874
14.1 858
14.12 791
14.14 810
14.16 846
14.18 855
14.2 884
14.22 854
14.24 823
14.26 933
14.28 958
14.3 868
14.32 928
14.34 923
14.36 972
14.38 882
14.4 973
14.42 908
14.44 976
14.46 962
14.48 993
14.5 894
14.52 878
14.54 862
14.56 861
14.58 851
14.6 899
14.62 889
14.64 909
14.66 950
14.68 868
14.7 937
14.72 926
14.74 919
14.76 950
14.78 961
14.8 943
14.82 978
14.84 1054
14.86 1081
14.88 1081
14.9 1022
14.92 1032
14.94 955
14.96 921
14.98 927
15 919
15.02 865
15.04 905
15.06 864
15.08 954
15.1 940
15.12 875
15.14 966
15.16 920
15.18 971
15.2 953
15.22 955
15.24 1015
15.26 1006
15.28 1047
15.3 1031
15.32 1034
15.34 996
15.36 928
15.38 964
15.4 990
15.42 980
15.44 951
15.46 940
15.48 924
15.5 939
15.52 961
15.54 934
15.56 992
15.58 990
15.6 987
15.62 1037
15.64 946
15.66 934
15.68 971
15.7 984
15.72 968
15.74 970
15.76 1067
15.78 950
15.8 982
15.82 959
15.84 987
15.86 983
15.88 1004
15.9 1014
15.92 987
15.94 991
15.96 1006
15.98 1027
16 1019
16.02 1031
16.04 999
16.06 1030
16.08 1019
16.1 1010
16.12 1052
16.14 1088
16.16 1085
16.18 1076
16.2 1078
16.22 1120
16.24 1127
16.26 1139
16.28 1210
16.3 1158
16.32 1320
16.34 1203
16.36 1254
16.38 1293
16.4 1228
16.42 1084
16.44 1098
16.46 1134
16.48 1135
16.5 1090
16.52 1143
16.54 1089
16.56 1113
16.58 1081
16.6 1123
16.62 1095
16.64 1098
16.66 1150
16.68 1159
16.7 1191
16.72 1184
16.74 1155
16.76 1202
16.78 1245
16.8 1227
16.82 1174
16.84 1266
16.86 1223
16.88 1311
16.9 1413
16.92 1383
16.94 1516
16.96 1665
16.98 1722
17 1795
17.02 1761
17.04 1609
17.06 1466
17.08 1318
17.1 1325
17.12 1227
17.14 1199
17.16 1196
17.18 1253
17.2 1318
17.22 1185
17.24 1224
17.26 1226
17.28 1257
17.3 1365
17.32 1306
17.34 1391
17.36 1358
17.38 1350
17.4 1308
17.42 1305
17.44 1257
17.46 1226
17.48 1266
17.5 1255
17.52 1304
17.54 1320
17.56 1322
17.58 1313
17.6 1271
17.62 1304
17.64 1327
17.66 1317
17.68 1269
17.7 1317
17.72 1305
17.74 1267
17.76 1260
17.78 1319
17.8 1341
17.82 1369
17.84 1328
17.86 1352
17.88 1417
17.9 1432
17.92 1483
17.94 1471
17.96 1470
17.98 1411
18 1324
18.02 1350
18.04 1396
18.06 1392
18.08 1327
18.1 1407
18.12 1399
18.14 1350
18.16 1384
18.18 1411
18.2 1357
18.22 1369
18.24 1338
18.26 1375
18.28 1349
18.3 1427
18.32 1404
18.34 1386
18.36 1434
18.38 1360
18.4 1375
18.42 1447
18.44 1325
18.46 1452
18.48 1473
18.5 1357
18.52 1364
18.54 1363
18.56 1461
18.58 1483
18.6 1426
18.62 1469
18.64 1476
18.66 1525
18.68 1521
18.7 1505
18.72 1559
18.74 1502
18.76 1572
18.78 1685
18.8 1706
18.82 1725
18.84 1763
18.86 1767
18.88 1640
18.9 1629
18.92 1620
18.94 1598
18.96 1590
18.98 1587
19 1611
19.02 1666
19.04 1652
19.06 1618
19.08 1752
19.1 1840
19.12 2002
19.14 2105
19.16 2218
19.18 2195
19.2 2156
19.22 2027
19.24 1788
19.26 1684
19.28 1634
19.3 1639
19.32 1572
19.34 1586
19.36 1614
19.38 1638
19.4 1681
19.42 1677
19.44 1788
19.46 1817
19.48 1984
19.5 2041
19.52 2046
19.54 2029
19.56 2069
19.58 2192
19.6 2227
19.62 2121
19.64 1971
19.66 1925
19.68 1888
19.7 1733
19.72 1720
19.74 1718
19.76 1698
19.78 1740
19.8 1624
19.82 1808
19.84 1808
19.86 1812
19.88 1878
19.9 1950
19.92 2013
19.94 1984
19.96 1956
19.98 1796
20 1746
20.02 1689
20.04 1694
20.06 1762
20.08 1735
20.1 1726
20.12 1681
20.14 1694
20.16 1723
20.18 1802
20.2 1863
20.22 1812
20.24 1883
20.26 1947
20.28 1956
20.3 1976
20.32 2048
20.34 2031
20.36 2060
20.38 1991
20.4 1947
20.42 1932
20.44 1900
20.46 1875
20.48 1878
20.5 1818
20.52 1773
20.54 1727
20.56 1693
20.58 1761
20.6 1761
20.62 1754
20.64 1759
20.66 1742
20.68 1728
20.7 1812
20.72 1805
20.74 1782
20.76 1762
20.78 1692
20.8 1782
20.82 1745
20.84 1788
20.86 1788
20.88 1802
20.9 1807
20.92 1830
20.94 1749
20.96 1717
20.98 1883
21 1836
21.02 1831
21.04 1752
21.06 1761
21.08 1904
21.1 1987
21.12 1893
21.14 1942
21.16 1933
21.18 1957
21.2 1921
21.22 1815
21.24 1927
21.26 1774
21.28 1840
21.3 1741
21.32 1841
21.34 1841
21.36 1815
21.38 1816
21.4 1859
21.42 1808
21.44 1826
21.46 1795
21.48 1803
21.5 1759
21.52 1866
21.54 1889
21.56 1794
21.58 1791
21.6 1858
21.62 1919
21.64 1843
21.66 1888
21.68 1899
21.7 1928
21.72 1892
21.74 1914
21.76 1910
21.78 1854
21.8 1858
21.82 1886
21.84 1836
21.86 1900
21.88 1864
21.9 1897
21.92 1871
21.94 1928
21.96 2033
21.98 2116
22 2317
22.02 2351
22.04 2272
22.06 2228
22.08 2134
22.1 1970
22.12 1987
22.14 1847
22.16 1859
22.18 1806
22.2 1836
22.22 1876
22.24 1883
22.26 1819
22.28 1837
22.3 1840
22.32 1834
22.34 1863
22.36 1815
22.38 1912
22.4 1825
22.42 1851
22.44 1861
22.46 1995
22.48 1913
22.5 2045
22.52 1981
22.54 2021
22.56 1877
22.58 1902
22.6 1784
22.62 1708
22.64 1833
22.66 1822
22.68 1787
22.7 1835
22.72 1752
22.74 1859
22.76 1844
22.78 1822
22.8 1810
22.82 1858
22.84 1816
22.86 1773
22.88 1799
22.9 1863
22.92 1829
22.94 1874
22.96 1873
22.98 1958
23 1971
23.02 1995
23.04 2024
23.06 2132
23.08 2144
23.1 2203
23.12 2356
23.14 2385
23.16 2348
23.18 2238
23.2 2139
23.22 2060
23.24 1945
23.26 1871
23.28 1876
23.3 1848
23.32 1898
23.34 1883
23.36 1839
23.38 1829
23.4 1791
23.42 1863
23.44 1782
23.46 1855
23.48 1872
23.5 1816
23.52 1783
23.54 1849
23.56 1957
23.58 1905
23.6 1879
23.62 1982
23.64 2058
23.66 2141
23.68 2184
23.7 2134
23.72 2132
23.74 2031
23.76 1870
23.78 1834
23.8 1822
23.82 1770
23.84 1839
23.86 1734
23.88 1865
23.9 1792
23.92 1875
23.94 1958
23.96 1970
23.98 1910
24 1955
24.02 1890
24.04 1806
24.06 1743
24.08 1768
24.1 1731
24.12 1731
24.14 1727
24.16 1736
24.18 1706
24.2 1663
24.22 1760
24.24 1765
24.26 1760
24.28 1701
24.3 1740
24.32 1832
24.34 1786
24.36 1790
24.38 1837
24.4 1840
24.42 1938
24.44 1939
24.46 2030
24.48 2030
24.5 2144
24.52 2210
24.54 2453
24.56 2495
24.58 2444
24.6 2339
24.62 2268
24.64 2064
24.66 1931
24.68 1914
24.7 1890
24.72 1832
24.74 1952
24.76 2022
24.78 2202
24.8 2319
24.82 2468
24.84 2496
24.86 2423
24.88 2249
24.9 2167
24.92 2121
24.94 2093
24.96 2068
24.98 2078
25 2037
25.02 2092
25.04 1938
25.06 1964
25.08 2049
25.1 2114
25.12 2125
25.14 2358
25.16 2418
25.18 2420
25.2 2467
25.22 2508
25.24 2543
25.26 2518
25.28 2555
25.3 2561
25.32 2397
25.34 2194
25.36 2167
25.38 2004
25.4 1925
25.42 1866
25.44 1870
25.46 1876
25.48 1941
25.5 1926
25.52 1998
25.54 2184
25.56 2379
25.58 2338
25.6 2335
25.62 2163
25.64 2067
25.66 1915
25.68 1901
25.7 1817
25.72 1743
25.74 1784
25.76 1726
25.78 1804
25.8 1802
25.82 1762
25.84 1687
25.86 1747
25.88 1690
25.9 1674
25.92 1688
25.94 1686
25.96 1702
25.98 1680
26 1748
26.02 1761
26.04 1723
26.06 1706
26.08 1689
26.1 1716
26.12 1723
26.14 1742
26.16 1715
26.18 1650
26.2 1718
26.22 1702
26.24 1791
26.26 1779
26.28 1853
26.3 1889
26.32 2001
26.34 1878
26.36 1832
26.38 1787
26.4 1713
26.42 1738
26.44 1667
26.46 1656
26.48 1643
26.5 1641
26.52 1640
26.54 1667
26.56 1670
26.58 1617
26.6 1655
26.62 1722
26.64 1595
26.66 1706
26.68 1740
26.7 1771
26.72 1782
26.74 1882
26.76 1864
26.78 1954
26.8 2123
26.82 2227
26.84 2409
26.86 2530
26.88 2654
26.9 2599
26.92 2453
26.94 2334
26.96 2155
26.98 2021
27 1858
27.02 1842
27.04 1819
27.06 1833
27.08 1825
27.1 1983
27.12 2185
27.14 2336
27.16 2731
27.18 2819
27.2 2711
27.22 2584
27.24 2414
27.26 2214
27.28 2006
27.3 1901
27.32 1735
27.34 1697
27.36 1717
27.38 1818
27.4 1865
27.42 1890
27.44 1917
27.46 1862
27.48 1776
27.5 1677
27.52 1748
27.54 1713
27.56 1668
27.58 1604
27.6 1595
27.62 1622
27.64 1615
27.66 1590
27.68 1652
27.7 1723
27.72 1734
27.74 1767
27.76 1870
27.78 1922
27.8 1807
27.82 1886
27.84 1904
27.86 1833
27.88 1709
27.9 1701
27.92 1698
27.94 1649
27.96 1597
27.98 1631
28 1597
28.02 1678
28.04 1574
28.06 1658
28.08 1568
28.1 1653
28.12 1703
28.14 1713
28.16 1706
28.18 1743
28.2 1781
28.22 1882
28.24 1824
28.26 1781
28.28 1940
28.3 2105
28.32 2314
28.34 2328
28.36 2376
28.38 2248
28.4 2169
28.42 2145
28.44 2001
28.46 1911
28.48 1895
28.5 1864
28.52 1854
28.54 1820
28.56 1732
28.58 1712
28.6 1710
28.62 1755
28.64 1710
28.66 1813
28.68 1877
28.7 1942
28.72 2122
28.74 2211
28.76 2257
28.78 2379
28.8 2368
28.82 2250
28.84 2107
28.86 1948
28.88 1924
28.9 1775
28.92 1751
28.94 1643
28.96 1778
28.98 1835
29 1976
29.02 1974
29.04 1958
29.06 1849
29.08 1867
29.1 1818
29.12 1777
29.14 1711
29.16 1648
29.18 1741
29.2 1725
29.22 1699
29.24 1735
29.26 1743
29.28 1713
29.3 1617
29.32 1620
29.34 1539
29.36 1551
29.38 1566
29.4 1484
29.42 1480
29.44 1501
29.46 1525
29.48 1535
29.5 1521
29.52 1533
29.54 1483
29.56 1584
29.58 1516
29.6 1513
29.62 1508
29.64 1426
29.66 1531
29.68 1523
29.7 1560
29.72 1557
29.74 1547
29.76 1603
29.78 1594
29.8 1715
29.82 1783
29.84 1970
29.86 2110
29.88 2183
29.9 2230
29.92 2214
29.94 1975
29.96 1799
29.98 1717
30 1671