File: xrd-UiO-67/pxrddata/3-19.ASC
3 2001
3.02 1887
3.04 1762
3.06 1725
3.08 1684
3.1 1587
3.12 1594
3.14 1571
3.16 1581
3.18 1549
3.2 1556
3.22 1591
3.24 1504
3.26 1403
3.28 1459
3.3 1369
3.32 1466
3.34 1410
3.36 1419
3.38 1405
3.4 1370
3.42 1359
3.44 1346
3.46 1340
3.48 1352
3.5 1336
3.52 1294
3.54 1351
3.56 1292
3.58 1278
3.6 1301
3.62 1242
3.64 1227
3.66 1224
3.68 1270
3.7 1160
3.72 1189
3.74 1159
3.76 1168
3.78 1158
3.8 1245
3.82 1139
3.84 1173
3.86 1123
3.88 1115
3.9 1112
3.92 1139
3.94 1110
3.96 1079
3.98 1070
4 1060
4.02 1071
4.04 1143
4.06 1014
4.08 1100
4.1 954
4.12 987
4.14 1016
4.16 1013
4.18 1025
4.2 974
4.22 1036
4.24 986
4.26 1011
4.28 997
4.3 968
4.32 972
4.34 931
4.36 957
4.38 983
4.4 974
4.42 992
4.44 906
4.46 891
4.48 892
4.5 936
4.52 911
4.54 955
4.56 911
4.58 938
4.6 869
4.62 956
4.64 880
4.66 902
4.68 882
4.7 861
4.72 873
4.74 837
4.76 870
4.78 900
4.8 843
4.82 899
4.84 856
4.86 845
4.88 844
4.9 855
4.92 811
4.94 811
4.96 810
4.98 850
5 840
5.02 867
5.04 839
5.06 858
5.08 895
5.1 830
5.12 842
5.14 885
5.16 836
5.18 915
5.2 826
5.22 830
5.24 804
5.26 837
5.28 863
5.3 864
5.32 892
5.34 862
5.36 853
5.38 889
5.4 827
5.42 872
5.44 852
5.46 824
5.48 873
5.5 918
5.52 924
5.54 970
5.56 983
5.58 962
5.6 1004
5.62 1092
5.64 1084
5.66 1145
5.68 1187
5.7 1266
5.72 1439
5.74 1645
5.76 1937
5.78 2335
5.8 2105
5.82 1392
5.84 837
5.86 751
5.88 750
5.9 737
5.92 704
5.94 747
5.96 684
5.98 723
6 673
6.02 750
6.04 698
6.06 675
6.08 684
6.1 612
6.12 635
6.14 624
6.16 675
6.18 672
6.2 651
6.22 653
6.24 682
6.26 675
6.28 630
6.3 656
6.32 678
6.34 666
6.36 695
6.38 693
6.4 726
6.42 695
6.44 724
6.46 740
6.48 755
6.5 766
6.52 791
6.54 799
6.56 875
6.58 904
6.6 915
6.62 1053
6.64 1238
6.66 1440
6.68 1402
6.7 994
6.72 673
6.74 641
6.76 578
6.78 626
6.8 623
6.82 587
6.84 603
6.86 573
6.88 583
6.9 568
6.92 556
6.94 581
6.96 575
6.98 577
7 555
7.02 548
7.04 614
7.06 563
7.08 557
7.1 573
7.12 507
7.14 564
7.16 561
7.18 542
7.2 549
7.22 561
7.24 537
7.26 513
7.28 564
7.3 504
7.32 522
7.34 532
7.36 527
7.38 506
7.4 563
7.42 540
7.44 552
7.46 567
7.48 525
7.5 535
7.52 565
7.54 571
7.56 538
7.58 559
7.6 551
7.62 528
7.64 529
7.66 558
7.68 577
7.7 535
7.72 531
7.74 527
7.76 514
7.78 528
7.8 525
7.82 528
7.84 527
7.86 552
7.88 560
7.9 531
7.92 560
7.94 532
7.96 558
7.98 506
8 543
8.02 480
8.04 505
8.06 537
8.08 528
8.1 530
8.12 523
8.14 519
8.16 521
8.18 500
8.2 533
8.22 499
8.24 548
8.26 559
8.28 505
8.3 509
8.32 480
8.34 512
8.36 497
8.38 556
8.4 514
8.42 506
8.44 538
8.46 512
8.48 516
8.5 549
8.52 520
8.54 528
8.56 505
8.58 476
8.6 487
8.62 503
8.64 495
8.66 525
8.68 530
8.7 502
8.72 521
8.74 491
8.76 491
8.78 509
8.8 537
8.82 450
8.84 542
8.86 502
8.88 518
8.9 489
8.92 501
8.94 549
8.96 542
8.98 533
9 503
9.02 489
9.04 527
9.06 510
9.08 530
9.1 590
9.12 550
9.14 538
9.16 529
9.18 586
9.2 583
9.22 637
9.24 669
9.26 721
9.28 736
9.3 743
9.32 796
9.34 905
9.36 1030
9.38 1179
9.4 1217
9.42 928
9.44 699
9.46 591
9.48 575
9.5 530
9.52 506
9.54 463
9.56 492
9.58 495
9.6 487
9.62 481
9.64 508
9.66 538
9.68 495
9.7 493
9.72 477
9.74 479
9.76 489
9.78 506
9.8 497
9.82 517
9.84 544
9.86 503
9.88 482
9.9 519
9.92 492
9.94 494
9.96 520
9.98 519
10 499
10.02 468
10.04 451
10.06 492
10.08 512
10.1 485
10.12 469
10.14 488
10.16 521
10.18 495
10.2 517
10.22 491
10.24 503
10.26 467
10.28 490
10.3 487
10.32 497
10.34 513
10.36 491
10.38 507
10.4 481
10.42 477
10.44 493
10.46 467
10.48 509
10.5 456
10.52 460
10.54 522
10.56 524
10.58 501
10.6 517
10.62 488
10.64 514
10.66 465
10.68 497
10.7 548
10.72 518
10.74 518
10.76 520
10.78 554
10.8 591
10.82 592
10.84 573
10.86 619
10.88 678
10.9 685
10.92 735
10.94 846
10.96 1029
10.98 1152
11 1232
11.02 1019
11.04 829
11.06 650
11.08 504
11.1 517
11.12 524
11.14 518
11.16 491
11.18 559
11.2 481
11.22 512
11.24 497
11.26 494
11.28 543
11.3 525
11.32 534
11.34 539
11.36 554
11.38 589
11.4 637
11.42 664
11.44 709
11.46 822
11.48 870
11.5 824
11.52 708
11.54 605
11.56 468
11.58 515
11.6 486
11.62 451
11.64 472
11.66 481
11.68 484
11.7 474
11.72 452
11.74 466
11.76 454
11.78 460
11.8 506
11.82 410
11.84 501
11.86 471
11.88 501
11.9 470
11.92 485
11.94 479
11.96 506
11.98 492
12 487
12.02 490
12.04 489
12.06 486
12.08 461
12.1 508
12.12 507
12.14 463
12.16 481
12.18 450
12.2 494
12.22 467
12.24 450
12.26 472
12.28 500
12.3 471
12.32 452
12.34 480
12.36 478
12.38 484
12.4 511
12.42 485
12.44 479
12.46 454
12.48 476
12.5 469
12.52 462
12.54 504
12.56 468
12.58 484
12.6 482
12.62 503
12.64 459
12.66 497
12.68 448
12.7 478
12.72 490
12.74 469
12.76 441
12.78 486
12.8 481
12.82 472
12.84 487
12.86 502
12.88 507
12.9 479
12.92 492
12.94 525
12.96 520
12.98 495
13 527
13.02 490
13.04 501
13.06 503
13.08 511
13.1 515
13.12 537
13.14 510
13.16 533
13.18 565
13.2 590
13.22 664
13.24 669
13.26 628
13.28 614
13.3 568
13.32 506
13.34 510
13.36 494
13.38 528
13.4 506
13.42 508
13.44 519
13.46 518
13.48 507
13.5 529
13.52 521
13.54 519
13.56 536
13.58 486
13.6 489
13.62 496
13.64 519
13.66 486
13.68 483
13.7 514
13.72 522
13.74 509
13.76 511
13.78 538
13.8 471
13.82 525
13.84 470
13.86 522
13.88 537
13.9 569
13.92 540
13.94 524
13.96 535
13.98 499
14 489
14.02 509
14.04 496
14.06 525
14.08 475
14.1 522
14.12 490
14.14 545
14.16 519
14.18 541
14.2 527
14.22 547
14.24 520
14.26 510
14.28 504
14.3 530
14.32 543
14.34 532
14.36 556
14.38 557
14.4 590
14.42 633
14.44 599
14.46 705
14.48 608
14.5 543
14.52 535
14.54 581
14.56 529
14.58 523
14.6 537
14.62 537
14.64 553
14.66 539
14.68 531
14.7 541
14.72 569
14.74 561
14.76 624
14.78 550
14.8 573
14.82 554
14.84 543
14.86 570
14.88 553
14.9 549
14.92 532
14.94 537
14.96 517
14.98 524
15 572
15.02 552
15.04 544
15.06 587
15.08 562
15.1 554
15.12 541
15.14 548
15.16 561
15.18 559
15.2 570
15.22 600
15.24 595
15.26 617
15.28 599
15.3 600
15.32 578
15.34 558
15.36 539
15.38 588
15.4 596
15.42 601
15.44 572
15.46 591
15.48 554
15.5 535
15.52 623
15.54 604
15.56 576
15.58 585
15.6 619
15.62 550
15.64 578
15.66 619
15.68 574
15.7 596
15.72 582
15.74 593
15.76 584
15.78 613
15.8 620
15.82 618
15.84 649
15.86 611
15.88 616
15.9 598
15.92 601
15.94 640
15.96 649
15.98 578
16 572
16.02 595
16.04 626
16.06 620
16.08 617
16.1 578
16.12 663
16.14 657
16.16 604
16.18 637
16.2 593
16.22 636
16.24 602
16.26 613
16.28 608
16.3 646
16.32 581
16.34 674
16.36 659
16.38 639
16.4 686
16.42 599
16.44 662
16.46 599
16.48 649
16.5 629
16.52 660
16.54 688
16.56 663
16.58 669
16.6 684
16.62 654
16.64 657
16.66 646
16.68 689
16.7 637
16.72 651
16.74 635
16.76 681
16.78 653
16.8 680
16.82 643
16.84 666
16.86 665
16.88 699
16.9 669
16.92 686
16.94 681
16.96 680
16.98 669
17 697
17.02 691
17.04 699
17.06 695
17.08 668
17.1 734
17.12 703
17.14 744
17.16 824
17.18 827
17.2 837
17.22 827
17.24 878
17.26 804
17.28 749
17.3 699
17.32 742
17.34 668
17.36 708
17.38 701
17.4 724
17.42 742
17.44 702
17.46 689
17.48 715
17.5 709
17.52 746
17.54 724
17.56 738
17.58 760
17.6 752
17.62 778
17.64 772
17.66 715
17.68 753
17.7 745
17.72 744
17.74 750
17.76 786
17.78 724
17.8 767
17.82 723
17.84 779
17.86 751
17.88 742
17.9 783
17.92 760
17.94 762
17.96 742
17.98 771
18 773
18.02 764
18.04 782
18.06 784
18.08 788
18.1 755
18.12 762
18.14 821
18.16 758
18.18 765
18.2 798
18.22 785
18.24 773
18.26 801
18.28 803
18.3 758
18.32 779
18.34 774
18.36 821
18.38 805
18.4 803
18.42 829
18.44 771
18.46 798
18.48 813
18.5 829
18.52 823
18.54 878
18.56 843
18.58 816
18.6 814
18.62 854
18.64 832
18.66 802
18.68 815
18.7 831
18.72 859
18.74 868
18.76 834
18.78 839
18.8 818
18.82 843
18.84 846
18.86 925
18.88 859
18.9 858
18.92 843
18.94 891
18.96 862
18.98 855
19 872
19.02 889
19.04 862
19.06 828
19.08 886
19.1 814
19.12 883
19.14 907
19.16 850
19.18 853
19.2 897
19.22 896
19.24 905
19.26 895
19.28 923
19.3 934
19.32 885
19.34 859
19.36 881
19.38 924
19.4 908
19.42 926
19.44 907
19.46 972
19.48 992
19.5 1028
19.52 1058
19.54 1042
19.56 1168
19.58 1324
19.6 1370
19.62 1386
19.64 1333
19.66 1247
19.68 1100
19.7 1096
19.72 985
19.74 1028
19.76 1059
19.78 1050
19.8 1081
19.82 1173
19.84 1287
19.86 1514
19.88 1582
19.9 1666
19.92 1548
19.94 1283
19.96 1174
19.98 1104
20 1007
20.02 941
20.04 953
20.06 939
20.08 916
20.1 940
20.12 956
20.14 947
20.16 992
20.18 942
20.2 960
20.22 992
20.24 990
20.26 922
20.28 932
20.3 930
20.32 936
20.34 883
20.36 944
20.38 910
20.4 991
20.42 965
20.44 942
20.46 937
20.48 982
20.5 942
20.52 992
20.54 941
20.56 956
20.58 981
20.6 1017
20.62 1011
20.64 1004
20.66 1047
20.68 949
20.7 943
20.72 1005
20.74 977
20.76 976
20.78 951
20.8 912
20.82 969
20.84 1055
20.86 1012
20.88 1008
20.9 1001
20.92 1028
20.94 976
20.96 959
20.98 1038
21 1028
21.02 980
21.04 1009
21.06 1043
21.08 986
21.1 1027
21.12 1004
21.14 1062
21.16 955
21.18 1035
21.2 1013
21.22 967
21.24 997
21.26 998
21.28 1022
21.3 969
21.32 967
21.34 999
21.36 1029
21.38 1002
21.4 974
21.42 1004
21.44 1052
21.46 979
21.48 1040
21.5 969
21.52 1016
21.54 1080
21.56 1010
21.58 1005
21.6 1057
21.62 1091
21.64 1059
21.66 1100
21.68 1092
21.7 1134
21.72 1262
21.74 1245
21.76 1255
21.78 1238
21.8 1174
21.82 1124
21.84 1111
21.86 1092
21.88 1045
21.9 1058
21.92 983
21.94 1057
21.96 1007
21.98 1057
22 1040
22.02 1002
22.04 1070
22.06 1053
22.08 1037
22.1 961
22.12 999
22.14 1067
22.16 1030
22.18 1081
22.2 1068
22.22 1004
22.24 987
22.26 1010
22.28 1024
22.3 1044
22.32 1015
22.34 1046
22.36 1055
22.38 1062
22.4 992
22.42 1022
22.44 1046
22.46 1023
22.48 982
22.5 1045
22.52 1006
22.54 1002
22.56 1030
22.58 1053
22.6 1112
22.62 1077
22.64 1058
22.66 1039
22.68 1030
22.7 1049
22.72 1076
22.74 1043
22.76 1010
22.78 1052
22.8 1038
22.82 1087
22.84 1083
22.86 1069
22.88 1051
22.9 1095
22.92 1105
22.94 1115
22.96 1107
22.98 1179
23 1193
23.02 1171
23.04 1110
23.06 1119
23.08 1087
23.1 1090
23.12 1046
23.14 1067
23.16 1041
23.18 1041
23.2 1087
23.22 1090
23.24 1047
23.26 1045
23.28 1084
23.3 1078
23.32 1055
23.34 1052
23.36 1039
23.38 1030
23.4 1018
23.42 1017
23.44 1037
23.46 1125
23.48 1069
23.5 1044
23.52 1078
23.54 1118
23.56 1064
23.58 1111
23.6 1149
23.62 1244
23.64 1268
23.66 1416
23.68 1495
23.7 1687
23.72 1662
23.74 1598
23.76 1452
23.78 1305
23.8 1227
23.82 1146
23.84 1081
23.86 1065
23.88 1043
23.9 1139
23.92 1135
23.94 1171
23.96 1171
23.98 1165
24 1140
24.02 1124
24.04 1115
24.06 1057
24.08 1030
24.1 1050
24.12 1088
24.14 1044
24.16 1028
24.18 1058
24.2 1004
24.22 977
24.24 1018
24.26 1058
24.28 1035
24.3 955
24.32 1064
24.34 999
24.36 1034
24.38 1013
24.4 1066
24.42 1022
24.44 1047
24.46 1022
24.48 1035
24.5 1044
24.52 1032
24.54 1007
24.56 999
24.58 1053
24.6 1009
24.62 1017
24.64 1062
24.66 1088
24.68 1023
24.7 1065
24.72 1088
24.74 1099
24.76 1107
24.78 1162
24.8 1198
24.82 1366
24.84 1467
24.86 1463
24.88 1426
24.9 1341
24.92 1266
24.94 1124
24.96 1162
24.98 1099
25 1041
25.02 1028
25.04 1016
25.06 987
25.08 1041
25.1 996
25.12 1011
25.14 1035
25.16 1040
25.18 1096
25.2 1000
25.22 1047
25.24 1032
25.26 994
25.28 1035
25.3 1085
25.32 1071
25.34 1019
25.36 1030
25.38 1042
25.4 1086
25.42 1122
25.44 1189
25.46 1305
25.48 1562
25.5 1635
25.52 1641
25.54 1688
25.56 1643
25.58 1422
25.6 1319
25.62 1128
25.64 1023
25.66 1058
25.68 1033
25.7 980
25.72 1003
25.74 1038
25.76 1121
25.78 996
25.8 1034
25.82 968
25.84 962
25.86 941
25.88 959
25.9 1002
25.92 989
25.94 992
25.96 1000
25.98 916
26 1020
26.02 977
26.04 947
26.06 976
26.08 927
26.1 971
26.12 976
26.14 1039
26.16 1007
26.18 988
26.2 1057
26.22 1012
26.24 971
26.26 981
26.28 963
26.3 966
26.32 950
26.34 954
26.36 976
26.38 979
26.4 1002
26.42 1014
26.44 1051
26.46 1046
26.48 1025
26.5 1015
26.52 1036
26.54 1215
26.56 1287
26.58 1404
26.6 1416
26.62 1362
26.64 1276
26.66 1178
26.68 1178
26.7 1092
26.72 972
26.74 1014
26.76 981
26.78 981
26.8 944
26.82 999
26.84 976
26.86 997
26.88 953
26.9 934
26.92 989
26.94 915
26.96 941
26.98 973
27 951
27.02 977
27.04 976
27.06 958
27.08 1004
27.1 952
27.12 923
27.14 925
27.16 943
27.18 1050
27.2 998
27.22 979
27.24 986
27.26 1011
27.28 956
27.3 962
27.32 1063
27.34 1062
27.36 1134
27.38 1184
27.4 1385
27.42 1389
27.44 1371
27.46 1345
27.48 1338
27.5 1210
27.52 1141
27.54 1085
27.56 973
27.58 940
27.6 953
27.62 935
27.64 907
27.66 915
27.68 947
27.7 914
27.72 961
27.74 870
27.76 922
27.78 925
27.8 895
27.82 939
27.84 971
27.86 935
27.88 947
27.9 931
27.92 917
27.94 935
27.96 956
27.98 878
28 954
28.02 876
28.04 959
28.06 938
28.08 917
28.1 903
28.12 949
28.14 923
28.16 986
28.18 1071
28.2 1050
28.22 1030
28.24 1115
28.26 1134
28.28 1102
28.3 997
28.32 973
28.34 1012
28.36 945
28.38 915
28.4 894
28.42 924
28.44 898
28.46 906
28.48 905
28.5 905
28.52 922
28.54 936
28.56 928
28.58 920
28.6 901
28.62 925
28.64 898
28.66 990
28.68 975
28.7 965
28.72 947
28.74 929
28.76 1052
28.78 1101
28.8 1250
28.82 1299
28.84 1265
28.86 1244
28.88 1191
28.9 1186
28.92 1106
28.94 1060
28.96 1095
28.98 1121
29 1195
29.02 1295
29.04 1263
29.06 1214
29.08 1178
29.1 1065
29.12 1095
29.14 1025
29.16 888
29.18 903
29.2 952
29.22 960
29.24 872
29.26 898
29.28 898
29.3 954
29.32 890
29.34 870
29.36 889
29.38 931
29.4 911
29.42 955
29.44 906
29.46 864
29.48 890
29.5 929
29.52 945
29.54 895
29.56 908
29.58 860
29.6 916
29.62 882
29.64 920
29.66 913
29.68 899
29.7 968
29.72 867
29.74 925
29.76 882
29.78 875
29.8 892
29.82 890
29.84 893
29.86 862
29.88 875
29.9 892
29.92 902
29.94 915
29.96 850
29.98 870
30 903