File: xrd-UiO-67/pxrddata/3-2.ASC
3 2146
3.02 1997
3.04 1844
3.06 1737
3.08 1671
3.1 1617
3.12 1603
3.14 1565
3.16 1530
3.18 1492
3.2 1458
3.22 1431
3.24 1456
3.26 1383
3.28 1340
3.3 1351
3.32 1420
3.34 1345
3.36 1358
3.38 1368
3.4 1284
3.42 1252
3.44 1162
3.46 1247
3.48 1196
3.5 1191
3.52 1267
3.54 1232
3.56 1210
3.58 1169
3.6 1159
3.62 1163
3.64 1118
3.66 1146
3.68 1113
3.7 1102
3.72 1114
3.74 1126
3.76 1086
3.78 1141
3.8 1038
3.82 1070
3.84 1063
3.86 1075
3.88 1009
3.9 1005
3.92 1014
3.94 1000
3.96 969
3.98 948
4 990
4.02 1000
4.04 1007
4.06 925
4.08 924
4.1 934
4.12 966
4.14 927
4.16 939
4.18 919
4.2 949
4.22 935
4.24 885
4.26 989
4.28 953
4.3 962
4.32 869
4.34 867
4.36 849
4.38 846
4.4 860
4.42 792
4.44 811
4.46 846
4.48 915
4.5 847
4.52 831
4.54 846
4.56 796
4.58 838
4.6 770
4.62 803
4.64 813
4.66 804
4.68 797
4.7 788
4.72 820
4.74 799
4.76 810
4.78 796
4.8 807
4.82 810
4.84 824
4.86 839
4.88 807
4.9 813
4.92 771
4.94 882
4.96 808
4.98 780
5 832
5.02 824
5.04 839
5.06 835
5.08 775
5.1 851
5.12 840
5.14 882
5.16 854
5.18 918
5.2 854
5.22 899
5.24 861
5.26 883
5.28 928
5.3 943
5.32 933
5.34 921
5.36 973
5.38 1012
5.4 995
5.42 1063
5.44 1070
5.46 1077
5.48 1073
5.5 1131
5.52 1252
5.54 1191
5.56 1243
5.58 1310
5.6 1330
5.62 1329
5.64 1498
5.66 1577
5.68 1657
5.7 1724
5.72 1939
5.74 2108
5.76 2352
5.78 2631
5.8 3174
5.82 3649
5.84 3223
5.86 1838
5.88 1090
5.9 923
5.92 876
5.94 849
5.96 821
5.98 831
6 854
6.02 780
6.04 771
6.06 813
6.08 788
6.1 794
6.12 796
6.14 811
6.16 810
6.18 741
6.2 789
6.22 856
6.24 814
6.26 788
6.28 869
6.3 854
6.32 814
6.34 827
6.36 865
6.38 876
6.4 874
6.42 889
6.44 947
6.46 976
6.48 969
6.5 1004
6.52 1096
6.54 1154
6.56 1215
6.58 1264
6.6 1324
6.62 1452
6.64 1556
6.66 1803
6.68 2040
6.7 2355
6.72 2112
6.74 1296
6.76 874
6.78 743
6.8 765
6.82 733
6.84 728
6.86 762
6.88 690
6.9 725
6.92 751
6.94 722
6.96 700
6.98 750
7 653
7.02 671
7.04 640
7.06 642
7.08 674
7.1 676
7.12 688
7.14 702
7.16 724
7.18 657
7.2 681
7.22 639
7.24 718
7.26 692
7.28 648
7.3 646
7.32 645
7.34 681
7.36 666
7.38 697
7.4 634
7.42 690
7.44 664
7.46 672
7.48 697
7.5 663
7.52 661
7.54 649
7.56 679
7.58 657
7.6 679
7.62 693
7.64 626
7.66 669
7.68 657
7.7 633
7.72 698
7.74 670
7.76 684
7.78 652
7.8 698
7.82 654
7.84 706
7.86 678
7.88 674
7.9 683
7.92 678
7.94 652
7.96 617
7.98 646
8 640
8.02 668
8.04 686
8.06 663
8.08 710
8.1 686
8.12 631
8.14 688
8.16 675
8.18 645
8.2 642
8.22 681
8.24 690
8.26 715
8.28 631
8.3 655
8.32 701
8.34 658
8.36 703
8.38 667
8.4 696
8.42 654
8.44 666
8.46 690
8.48 693
8.5 649
8.52 676
8.54 694
8.56 705
8.58 668
8.6 709
8.62 652
8.64 690
8.66 666
8.68 658
8.7 720
8.72 707
8.74 681
8.76 692
8.78 697
8.8 672
8.82 708
8.84 711
8.86 720
8.88 652
8.9 706
8.92 686
8.94 680
8.96 729
8.98 697
9 709
9.02 748
9.04 715
9.06 754
9.08 778
9.1 771
9.12 815
9.14 818
9.16 806
9.18 873
9.2 869
9.22 898
9.24 957
9.26 993
9.28 1023
9.3 1077
9.32 1208
9.34 1339
9.36 1428
9.38 1602
9.4 1838
9.42 1948
9.44 1817
9.46 1423
9.48 951
9.5 780
9.52 688
9.54 743
9.56 738
9.58 716
9.6 706
9.62 701
9.64 616
9.66 671
9.68 644
9.7 731
9.72 701
9.74 693
9.76 708
9.78 667
9.8 659
9.82 658
9.84 669
9.86 716
9.88 734
9.9 724
9.92 697
9.94 727
9.96 710
9.98 676
10 692
10.02 702
10.04 686
10.06 701
10.08 713
10.1 659
10.12 737
10.14 743
10.16 716
10.18 650
10.2 736
10.22 686
10.24 692
10.26 724
10.28 686
10.3 733
10.32 728
10.34 700
10.36 748
10.38 706
10.4 711
10.42 721
10.44 674
10.46 701
10.48 759
10.5 747
10.52 691
10.54 740
10.56 748
10.58 731
10.6 736
10.62 737
10.64 743
10.66 779
10.68 779
10.7 832
10.72 811
10.74 825
10.76 824
10.78 876
10.8 875
10.82 881
10.84 912
10.86 948
10.88 994
10.9 1067
10.92 1121
10.94 1229
10.96 1371
10.98 1550
11 1832
11.02 2104
11.04 2107
11.06 1769
11.08 1295
11.1 883
11.12 820
11.14 828
11.16 751
11.18 729
11.2 781
11.22 749
11.24 745
11.26 787
11.28 793
11.3 818
11.32 810
11.34 827
11.36 850
11.38 870
11.4 919
11.42 989
11.44 1055
11.46 1138
11.48 1197
11.5 1359
11.52 1455
11.54 1299
11.56 1057
11.58 875
11.6 767
11.62 772
11.64 738
11.66 749
11.68 753
11.7 724
11.72 728
11.74 690
11.76 733
11.78 690
11.8 765
11.82 715
11.84 749
11.86 715
11.88 725
11.9 758
11.92 730
11.94 790
11.96 744
11.98 751
12 791
12.02 751
12.04 774
12.06 732
12.08 770
12.1 770
12.12 759
12.14 735
12.16 781
12.18 728
12.2 778
12.22 776
12.24 817
12.26 759
12.28 725
12.3 806
12.32 756
12.34 777
12.36 741
12.38 794
12.4 792
12.42 756
12.44 768
12.46 737
12.48 759
12.5 786
12.52 781
12.54 727
12.56 805
12.58 791
12.6 764
12.62 762
12.64 775
12.66 725
12.68 781
12.7 790
12.72 747
12.74 812
12.76 822
12.78 840
12.8 781
12.82 801
12.84 839
12.86 785
12.88 789
12.9 798
12.92 810
12.94 739
12.96 824
12.98 855
13 810
13.02 800
13.04 785
13.06 826
13.08 855
13.1 819
13.12 873
13.14 856
13.16 899
13.18 844
13.2 902
13.22 941
13.24 993
13.26 1024
13.28 1038
13.3 1121
13.32 993
13.34 910
13.36 891
13.38 848
13.4 859
13.42 831
13.44 870
13.46 822
13.48 791
13.5 805
13.52 842
13.54 831
13.56 859
13.58 877
13.6 834
13.62 854
13.64 797
13.66 853
13.68 842
13.7 844
13.72 886
13.74 872
13.76 821
13.78 832
13.8 853
13.82 884
13.84 931
13.86 848
13.88 908
13.9 860
13.92 882
13.94 904
13.96 920
13.98 876
14 847
14.02 902
14.04 891
14.06 911
14.08 901
14.1 942
14.12 913
14.14 922
14.16 906
14.18 934
14.2 903
14.22 951
14.24 940
14.26 959
14.28 1004
14.3 977
14.32 930
14.34 910
14.36 986
14.38 962
14.4 1055
14.42 1072
14.44 1079
14.46 1166
14.48 1166
14.5 1094
14.52 1058
14.54 999
14.56 948
14.58 1041
14.6 970
14.62 977
14.64 932
14.66 962
14.68 996
14.7 991
14.72 985
14.74 998
14.76 984
14.78 997
14.8 985
14.82 1060
14.84 1018
14.86 981
14.88 997
14.9 1017
14.92 1052
14.94 1028
14.96 1021
14.98 1017
15 1025
15.02 1052
15.04 1025
15.06 1000
15.08 1086
15.1 1021
15.12 1028
15.14 1015
15.16 1068
15.18 1000
15.2 1012
15.22 1059
15.24 1031
15.26 1085
15.28 1053
15.3 1075
15.32 1057
15.34 1026
15.36 1137
15.38 1147
15.4 1062
15.42 1108
15.44 1149
15.46 1064
15.48 1090
15.5 1093
15.52 1134
15.54 1087
15.56 1135
15.58 1158
15.6 1116
15.62 1155
15.64 1139
15.66 1121
15.68 1183
15.7 1189
15.72 1151
15.74 1162
15.76 1091
15.78 1196
15.8 1093
15.82 1198
15.84 1125
15.86 1175
15.88 1249
15.9 1223
15.92 1223
15.94 1203
15.96 1171
15.98 1167
16 1219
16.02 1144
16.04 1215
16.06 1186
16.08 1270
16.1 1201
16.12 1223
16.14 1200
16.16 1200
16.18 1259
16.2 1307
16.22 1236
16.24 1211
16.26 1199
16.28 1277
16.3 1345
16.32 1319
16.34 1284
16.36 1338
16.38 1262
16.4 1276
16.42 1209
16.44 1307
16.46 1338
16.48 1346
16.5 1338
16.52 1321
16.54 1225
16.56 1343
16.58 1346
16.6 1367
16.62 1336
16.64 1301
16.66 1312
16.68 1360
16.7 1382
16.72 1332
16.74 1426
16.76 1352
16.78 1391
16.8 1384
16.82 1364
16.84 1392
16.86 1356
16.88 1386
16.9 1473
16.92 1417
16.94 1405
16.96 1392
16.98 1418
17 1431
17.02 1474
17.04 1499
17.06 1521
17.08 1549
17.1 1463
17.12 1547
17.14 1533
17.16 1579
17.18 1637
17.2 1627
17.22 1724
17.24 1809
17.26 1812
17.28 1689
17.3 1597
17.32 1601
17.34 1564
17.36 1539
17.38 1478
17.4 1542
17.42 1579
17.44 1555
17.46 1565
17.48 1574
17.5 1614
17.52 1571
17.54 1576
17.56 1661
17.58 1577
17.6 1614
17.62 1499
17.64 1653
17.66 1661
17.68 1662
17.7 1643
17.72 1621
17.74 1691
17.76 1621
17.78 1591
17.8 1692
17.82 1687
17.84 1722
17.86 1674
17.88 1631
17.9 1697
17.92 1696
17.94 1698
17.96 1680
17.98 1745
18 1746
18.02 1741
18.04 1779
18.06 1747
18.08 1782
18.1 1781
18.12 1744
18.14 1719
18.16 1778
18.18 1752
18.2 1703
18.22 1803
18.24 1757
18.26 1755
18.28 1761
18.3 1885
18.32 1810
18.34 1879
18.36 1851
18.38 1915
18.4 1845
18.42 1826
18.44 1894
18.46 1913
18.48 1956
18.5 1817
18.52 1758
18.54 1883
18.56 1869
18.58 1916
18.6 1850
18.62 1912
18.64 1929
18.66 1876
18.68 1951
18.7 1867
18.72 1984
18.74 2006
18.76 2008
18.78 1920
18.8 1993
18.82 1970
18.84 1930
18.86 1976
18.88 1922
18.9 1968
18.92 1920
18.94 2018
18.96 2015
18.98 2002
19 2000
19.02 2071
19.04 2042
19.06 2037
19.08 2048
19.1 2092
19.12 2009
19.14 2026
19.16 2099
19.18 2015
19.2 2139
19.22 2088
19.24 2084
19.26 2130
19.28 2104
19.3 2112
19.32 2111
19.34 2155
19.36 2055
19.38 2165
19.4 2255
19.42 2183
19.44 2268
19.46 2237
19.48 2229
19.5 2233
19.52 2255
19.54 2345
19.56 2562
19.58 2597
19.6 2805
19.62 2983
19.64 2995
19.66 3036
19.68 2749
19.7 2684
19.72 2580
19.74 2470
19.76 2409
19.78 2423
19.8 2508
19.82 2628
19.84 2657
19.86 2866
19.88 3137
19.9 3241
19.92 3406
19.94 3397
19.96 3160
19.98 2856
20 2562
20.02 2389
20.04 2278
20.06 2365
20.08 2303
20.1 2214
20.12 2293
20.14 2212
20.16 2265
20.18 2343
20.2 2180
20.22 2274
20.24 2267
20.26 2229
20.28 2224
20.3 2187
20.32 2300
20.34 2326
20.36 2303
20.38 2321
20.4 2315
20.42 2328
20.44 2193
20.46 2280
20.48 2329
20.5 2284
20.52 2398
20.54 2236
20.56 2294
20.58 2341
20.6 2374
20.62 2305
20.64 2252
20.66 2194
20.68 2315
20.7 2242
20.72 2347
20.74 2373
20.76 2256
20.78 2359
20.8 2313
20.82 2316
20.84 2255
20.86 2297
20.88 2345
20.9 2318
20.92 2380
20.94 2370
20.96 2294
20.98 2333
21 2298
21.02 2337
21.04 2243
21.06 2293
21.08 2272
21.1 2212
21.12 2285
21.14 2301
21.16 2255
21.18 2310
21.2 2302
21.22 2339
21.24 2314
21.26 2367
21.28 2372
21.3 2307
21.32 2348
21.34 2318
21.36 2364
21.38 2347
21.4 2305
21.42 2333
21.44 2374
21.46 2264
21.48 2349
21.5 2326
21.52 2249
21.54 2309
21.56 2385
21.58 2372
21.6 2368
21.62 2394
21.64 2372
21.66 2384
21.68 2426
21.7 2489
21.72 2493
21.74 2546
21.76 2695
21.78 2721
21.8 2718
21.82 2501
21.84 2511
21.86 2477
21.88 2337
21.9 2436
21.92 2326
21.94 2333
21.96 2322
21.98 2335
22 2310
22.02 2261
22.04 2223
22.06 2276
22.08 2352
22.1 2352
22.12 2354
22.14 2340
22.16 2323
22.18 2308
22.2 2260
22.22 2255
22.24 2253
22.26 2282
22.28 2278
22.3 2303
22.32 2262
22.34 2258
22.36 2295
22.38 2316
22.4 2260
22.42 2313
22.44 2252
22.46 2246
22.48 2279
22.5 2231
22.52 2218
22.54 2250
22.56 2265
22.58 2197
22.6 2276
22.62 2239
22.64 2215
22.66 2223
22.68 2274
22.7 2223
22.72 2238
22.74 2262
22.76 2266
22.78 2168
22.8 2172
22.82 2190
22.84 2162
22.86 2200
22.88 2126
22.9 2257
22.92 2208
22.94 2323
22.96 2387
22.98 2402
23 2349
23.02 2387
23.04 2401
23.06 2367
23.08 2337
23.1 2234
23.12 2257
23.14 2219
23.16 2163
23.18 2222
23.2 2205
23.22 2148
23.24 2157
23.26 2165
23.28 2183
23.3 2202
23.32 2170
23.34 2130
23.36 2238
23.38 2138
23.4 2179
23.42 2193
23.44 2141
23.46 2152
23.48 2217
23.5 2214
23.52 2199
23.54 2155
23.56 2283
23.58 2280
23.6 2275
23.62 2381
23.64 2362
23.66 2492
23.68 2639
23.7 2815
23.72 3034
23.74 3148
23.76 3195
23.78 2949
23.8 2694
23.82 2545
23.84 2426
23.86 2253
23.88 2172
23.9 2246
23.92 2261
23.94 2258
23.96 2324
23.98 2377
24 2328
24.02 2291
24.04 2195
24.06 2152
24.08 2158
24.1 1971
24.12 2009
24.14 2067
24.16 2020
24.18 2026
24.2 2035
24.22 2065
24.24 2014
24.26 2049
24.28 1985
24.3 2016
24.32 1997
24.34 2039
24.36 2050
24.38 2036
24.4 2067
24.42 2055
24.44 2047
24.46 1996
24.48 2072
24.5 2021
24.52 2044
24.54 2049
24.56 1969
24.58 2019
24.6 1968
24.62 2055
24.64 2088
24.66 2004
24.68 2121
24.7 1995
24.72 2040
24.74 2103
24.76 2117
24.78 2193
24.8 2284
24.82 2254
24.84 2379
24.86 2621
24.88 2740
24.9 2689
24.92 2689
24.94 2519
24.96 2421
24.98 2207
25 2088
25.02 2053
25.04 1978
25.06 1999
25.08 1973
25.1 2010
25.12 1911
25.14 1991
25.16 1985
25.18 2039
25.2 2094
25.22 2024
25.24 2010
25.26 2018
25.28 2041
25.3 1998
25.32 2008
25.34 1979
25.36 2108
25.38 2008
25.4 2009
25.42 2147
25.44 2139
25.46 2332
25.48 2429
25.5 2605
25.52 2772
25.54 3027
25.56 3054
25.58 2929
25.6 2650
25.62 2491
25.64 2341
25.66 2164
25.68 1997
25.7 1963
25.72 1961
25.74 1876
25.76 1828
25.78 1894
25.8 1848
25.82 1801
25.84 1843
25.86 1854
25.88 1883
25.9 1875
25.92 1876
25.94 1941
25.96 1878
25.98 1855
26 1891
26.02 1862
26.04 1888
26.06 1790
26.08 1772
26.1 1813
26.12 1855
26.14 1817
26.16 1867
26.18 1867
26.2 1842
26.22 1792
26.24 1770
26.26 1848
26.28 1827
26.3 1820
26.32 1772
26.34 1842
26.36 1817
26.38 1799
26.4 1807
26.42 1793
26.44 1842
26.46 1837
26.48 1833
26.5 1849
26.52 1952
26.54 1955
26.56 2056
26.58 2209
26.6 2411
26.62 2432
26.64 2541
26.66 2462
26.68 2309
26.7 2135
26.72 2034
26.74 1903
26.76 1813
26.78 1742
26.8 1840
26.82 1826
26.84 1819
26.86 1818
26.88 1866
26.9 1809
26.92 1803
26.94 1769
26.96 1790
26.98 1808
27 1739
27.02 1738
27.04 1765
27.06 1682
27.08 1777
27.1 1752
27.12 1776
27.14 1737
27.16 1800
27.18 1794
27.2 1839
27.22 1770
27.24 1826
27.26 1801
27.28 1788
27.3 1846
27.32 1906
27.34 1949
27.36 1925
27.38 2026
27.4 2146
27.42 2271
27.44 2393
27.46 2508
27.48 2485
27.5 2334
27.52 2124
27.54 2153
27.56 1956
27.58 1813
27.6 1653
27.62 1628
27.64 1721
27.66 1671
27.68 1698
27.7 1628
27.72 1706
27.74 1706
27.76 1675
27.78 1739
27.8 1620
27.82 1663
27.84 1647
27.86 1641
27.88 1589
27.9 1677
27.92 1679
27.94 1688
27.96 1641
27.98 1679
28 1682
28.02 1716
28.04 1610
28.06 1640
28.08 1593
28.1 1681
28.12 1718
28.14 1660
28.16 1642
28.18 1722
28.2 1756
28.22 1759
28.24 1903
28.26 1868
28.28 1864
28.3 1914
28.32 1790
28.34 1783
28.36 1756
28.38 1776
28.4 1655
28.42 1650
28.44 1634
28.46 1635
28.48 1621
28.5 1670
28.52 1640
28.54 1638
28.56 1600
28.58 1604
28.6 1587
28.62 1651
28.64 1679
28.66 1613
28.68 1723
28.7 1693
28.72 1635
28.74 1747
28.76 1798
28.78 1898
28.8 1894
28.82 1983
28.84 2252
28.86 2328
28.88 2302
28.9 2147
28.92 2067
28.94 2003
28.96 2113
28.98 1977
29 1960
29.02 2061
29.04 2173
29.06 2222
29.08 2207
29.1 2018
29.12 1842
29.14 1828
29.16 1754
29.18 1671
29.2 1582
29.22 1506
29.24 1557
29.26 1537
29.28 1632
29.3 1557
29.32 1562
29.34 1517
29.36 1441
29.38 1523
29.4 1501
29.42 1589
29.44 1504
29.46 1555
29.48 1571
29.5 1554
29.52 1576
29.54 1540
29.56 1501
29.58 1517
29.6 1507
29.62 1475
29.64 1496
29.66 1550
29.68 1432
29.7 1434
29.72 1496
29.74 1509
29.76 1513
29.78 1545
29.8 1494
29.82 1543
29.84 1521
29.86 1519
29.88 1515
29.9 1498
29.92 1474
29.94 1517
29.96 1493
29.98 1483
30 1456