File: xrd-UiO-67/pxrddata/3-4.ASC
3 2457
3.02 2314
3.04 2138
3.06 1969
3.08 1840
3.1 1790
3.12 1742
3.14 1742
3.16 1679
3.18 1615
3.2 1644
3.22 1628
3.24 1574
3.26 1589
3.28 1552
3.3 1595
3.32 1534
3.34 1446
3.36 1526
3.38 1435
3.4 1439
3.42 1327
3.44 1361
3.46 1355
3.48 1347
3.5 1263
3.52 1289
3.54 1306
3.56 1308
3.58 1262
3.6 1239
3.62 1163
3.64 1198
3.66 1204
3.68 1228
3.7 1200
3.72 1192
3.74 1177
3.76 1177
3.78 1207
3.8 1095
3.82 1151
3.84 1053
3.86 1070
3.88 1122
3.9 1046
3.92 1055
3.94 1041
3.96 1042
3.98 996
4 1032
4.02 1077
4.04 981
4.06 1023
4.08 997
4.1 966
4.12 949
4.14 923
4.16 973
4.18 947
4.2 908
4.22 937
4.24 875
4.26 927
4.28 912
4.3 900
4.32 922
4.34 891
4.36 919
4.38 902
4.4 896
4.42 852
4.44 874
4.46 889
4.48 868
4.5 832
4.52 850
4.54 897
4.56 889
4.58 840
4.6 846
4.62 818
4.64 861
4.66 843
4.68 853
4.7 847
4.72 844
4.74 880
4.76 823
4.78 800
4.8 805
4.82 810
4.84 835
4.86 843
4.88 817
4.9 826
4.92 789
4.94 822
4.96 833
4.98 786
5 804
5.02 822
5.04 857
5.06 783
5.08 870
5.1 861
5.12 850
5.14 794
5.16 835
5.18 872
5.2 891
5.22 893
5.24 858
5.26 890
5.28 811
5.3 879
5.32 877
5.34 934
5.36 943
5.38 940
5.4 961
5.42 1007
5.44 1050
5.46 1092
5.48 1030
5.5 1103
5.52 1156
5.54 1225
5.56 1262
5.58 1278
5.6 1283
5.62 1385
5.64 1496
5.66 1593
5.68 1733
5.7 1966
5.72 2264
5.74 2533
5.76 2852
5.78 3333
5.8 3277
5.82 2335
5.84 1193
5.86 938
5.88 793
5.9 811
5.92 810
5.94 782
5.96 779
5.98 730
6 740
6.02 750
6.04 762
6.06 769
6.08 759
6.1 716
6.12 808
6.14 755
6.16 735
6.18 694
6.2 727
6.22 794
6.24 756
6.26 766
6.28 856
6.3 742
6.32 779
6.34 796
6.36 820
6.38 875
6.4 831
6.42 926
6.44 935
6.46 940
6.48 977
6.5 1056
6.52 1050
6.54 1144
6.56 1279
6.58 1315
6.6 1538
6.62 1662
6.64 1796
6.66 2052
6.68 2105
6.7 1554
6.72 970
6.74 751
6.76 678
6.78 679
6.8 704
6.82 668
6.84 628
6.86 665
6.88 668
6.9 684
6.92 652
6.94 644
6.96 681
6.98 642
7 604
7.02 649
7.04 635
7.06 643
7.08 638
7.1 658
7.12 662
7.14 608
7.16 638
7.18 643
7.2 618
7.22 570
7.24 605
7.26 642
7.28 608
7.3 618
7.32 657
7.34 614
7.36 631
7.38 629
7.4 653
7.42 631
7.44 598
7.46 597
7.48 582
7.5 642
7.52 594
7.54 651
7.56 638
7.58 644
7.6 638
7.62 611
7.64 595
7.66 601
7.68 614
7.7 597
7.72 589
7.74 585
7.76 652
7.78 636
7.8 576
7.82 620
7.84 600
7.86 629
7.88 610
7.9 616
7.92 601
7.94 637
7.96 589
7.98 600
8 626
8.02 591
8.04 624
8.06 594
8.08 595
8.1 603
8.12 624
8.14 617
8.16 629
8.18 590
8.2 580
8.22 608
8.24 596
8.26 580
8.28 572
8.3 586
8.32 580
8.34 571
8.36 608
8.38 626
8.4 614
8.42 613
8.44 614
8.46 584
8.48 603
8.5 639
8.52 615
8.54 630
8.56 581
8.58 608
8.6 610
8.62 588
8.64 623
8.66 581
8.68 625
8.7 601
8.72 600
8.74 605
8.76 606
8.78 583
8.8 574
8.82 589
8.84 630
8.86 652
8.88 595
8.9 614
8.92 628
8.94 626
8.96 605
8.98 644
9 638
9.02 662
9.04 661
9.06 640
9.08 652
9.1 664
9.12 670
9.14 703
9.16 729
9.18 736
9.2 768
9.22 766
9.24 779
9.26 854
9.28 927
9.3 1002
9.32 1131
9.34 1256
9.36 1411
9.38 1516
9.4 1563
9.42 1350
9.44 1019
9.46 729
9.48 669
9.5 621
9.52 661
9.54 632
9.56 591
9.58 581
9.6 589
9.62 603
9.64 597
9.66 591
9.68 578
9.7 636
9.72 593
9.74 619
9.76 595
9.78 633
9.8 605
9.82 585
9.84 599
9.86 593
9.88 604
9.9 596
9.92 617
9.94 621
9.96 571
9.98 592
10 558
10.02 597
10.04 589
10.06 589
10.08 554
10.1 597
10.12 592
10.14 615
10.16 620
10.18 610
10.2 535
10.22 606
10.24 610
10.26 596
10.28 586
10.3 580
10.32 586
10.34 586
10.36 591
10.38 600
10.4 600
10.42 564
10.44 555
10.46 591
10.48 623
10.5 617
10.52 555
10.54 537
10.56 602
10.58 577
10.6 606
10.62 628
10.64 609
10.66 663
10.68 685
10.7 690
10.72 702
10.74 670
10.76 690
10.78 693
10.8 781
10.82 793
10.84 797
10.86 854
10.88 894
10.9 947
10.92 1071
10.94 1190
10.96 1352
10.98 1409
11 1550
11.02 1540
11.04 1181
11.06 865
11.08 702
11.1 674
11.12 634
11.14 619
11.16 651
11.18 667
11.2 638
11.22 608
11.24 645
11.26 674
11.28 704
11.3 704
11.32 739
11.34 723
11.36 743
11.38 781
11.4 850
11.42 893
11.44 985
11.46 1037
11.48 1151
11.5 1159
11.52 925
11.54 792
11.56 664
11.58 640
11.6 672
11.62 658
11.64 608
11.66 645
11.68 638
11.7 663
11.72 611
11.74 590
11.76 605
11.78 611
11.8 613
11.82 620
11.84 618
11.86 637
11.88 633
11.9 563
11.92 594
11.94 649
11.96 630
11.98 620
12 592
12.02 607
12.04 574
12.06 597
12.08 590
12.1 609
12.12 636
12.14 593
12.16 636
12.18 581
12.2 658
12.22 633
12.24 613
12.26 625
12.28 615
12.3 668
12.32 637
12.34 640
12.36 663
12.38 608
12.4 616
12.42 698
12.44 633
12.46 628
12.48 630
12.5 588
12.52 656
12.54 641
12.56 617
12.58 629
12.6 674
12.62 616
12.64 615
12.66 657
12.68 648
12.7 592
12.72 642
12.74 630
12.76 619
12.78 635
12.8 640
12.82 660
12.84 633
12.86 634
12.88 703
12.9 654
12.92 646
12.94 642
12.96 644
12.98 638
13 632
13.02 657
13.04 648
13.06 651
13.08 688
13.1 700
13.12 709
13.14 739
13.16 711
13.18 693
13.2 719
13.22 791
13.24 814
13.26 837
13.28 757
13.3 760
13.32 711
13.34 715
13.36 680
13.38 691
13.4 651
13.42 696
13.44 679
13.46 678
13.48 689
13.5 670
13.52 685
13.54 684
13.56 730
13.58 682
13.6 704
13.62 697
13.64 719
13.66 736
13.68 666
13.7 715
13.72 704
13.74 641
13.76 694
13.78 656
13.8 667
13.82 672
13.84 736
13.86 687
13.88 701
13.9 708
13.92 749
13.94 699
13.96 700
13.98 749
14 696
14.02 715
14.04 721
14.06 666
14.08 719
14.1 728
14.12 723
14.14 710
14.16 693
14.18 698
14.2 721
14.22 718
14.24 733
14.26 744
14.28 782
14.3 758
14.32 728
14.34 714
14.36 803
14.38 776
14.4 852
14.42 908
14.44 916
14.46 891
14.48 859
14.5 833
14.52 815
14.54 775
14.56 737
14.58 803
14.6 809
14.62 733
14.64 729
14.66 749
14.68 797
14.7 781
14.72 733
14.74 797
14.76 746
14.78 835
14.8 798
14.82 758
14.84 752
14.86 766
14.88 800
14.9 770
14.92 808
14.94 752
14.96 771
14.98 806
15 771
15.02 758
15.04 762
15.06 769
15.08 734
15.1 818
15.12 764
15.14 766
15.16 762
15.18 823
15.2 787
15.22 818
15.24 802
15.26 828
15.28 813
15.3 798
15.32 759
15.34 834
15.36 859
15.38 850
15.4 820
15.42 818
15.44 879
15.46 861
15.48 852
15.5 855
15.52 839
15.54 824
15.56 884
15.58 890
15.6 900
15.62 905
15.64 796
15.66 855
15.68 869
15.7 868
15.72 884
15.74 915
15.76 842
15.78 885
15.8 874
15.82 865
15.84 890
15.86 847
15.88 911
15.9 898
15.92 916
15.94 952
15.96 920
15.98 913
16 920
16.02 903
16.04 882
16.06 922
16.08 903
16.1 939
16.12 1002
16.14 955
16.16 934
16.18 952
16.2 949
16.22 952
16.24 954
16.26 970
16.28 921
16.3 970
16.32 947
16.34 975
16.36 967
16.38 947
16.4 971
16.42 939
16.44 993
16.46 953
16.48 995
16.5 1006
16.52 969
16.54 977
16.56 1002
16.58 964
16.6 973
16.62 996
16.64 1032
16.66 1056
16.68 1022
16.7 1064
16.72 1041
16.74 1023
16.76 1050
16.78 1022
16.8 1007
16.82 1078
16.84 1033
16.86 1053
16.88 1071
16.9 1055
16.92 1041
16.94 1080
16.96 1151
16.98 1127
17 1122
17.02 1049
17.04 1128
17.06 1175
17.08 1087
17.1 1124
17.12 1196
17.14 1188
17.16 1225
17.18 1282
17.2 1234
17.22 1299
17.24 1249
17.26 1269
17.28 1195
17.3 1163
17.32 1142
17.34 1135
17.36 1111
17.38 1077
17.4 1198
17.42 1155
17.44 1118
17.46 1070
17.48 1145
17.5 1188
17.52 1127
17.54 1169
17.56 1190
17.58 1176
17.6 1175
17.62 1135
17.64 1171
17.66 1200
17.68 1184
17.7 1200
17.72 1178
17.74 1162
17.76 1219
17.78 1239
17.8 1225
17.82 1181
17.84 1166
17.86 1227
17.88 1198
17.9 1164
17.92 1237
17.94 1268
17.96 1215
17.98 1238
18 1247
18.02 1237
18.04 1199
18.06 1202
18.08 1227
18.1 1214
18.12 1223
18.14 1274
18.16 1216
18.18 1275
18.2 1266
18.22 1288
18.24 1319
18.26 1288
18.28 1279
18.3 1319
18.32 1296
18.34 1296
18.36 1355
18.38 1309
18.4 1327
18.42 1330
18.44 1291
18.46 1324
18.48 1329
18.5 1370
18.52 1323
18.54 1379
18.56 1353
18.58 1397
18.6 1335
18.62 1387
18.64 1414
18.66 1351
18.68 1333
18.7 1352
18.72 1429
18.74 1415
18.76 1445
18.78 1313
18.8 1413
18.82 1398
18.84 1388
18.86 1394
18.88 1477
18.9 1402
18.92 1342
18.94 1388
18.96 1374
18.98 1433
19 1405
19.02 1388
19.04 1419
19.06 1399
19.08 1460
19.1 1407
19.12 1405
19.14 1424
19.16 1397
19.18 1435
19.2 1499
19.22 1501
19.24 1450
19.26 1464
19.28 1413
19.3 1485
19.32 1423
19.34 1529
19.36 1464
19.38 1481
19.4 1558
19.42 1522
19.44 1614
19.46 1534
19.48 1626
19.5 1671
19.52 1716
19.54 1786
19.56 1972
19.58 2006
19.6 2098
19.62 2144
19.64 2023
19.66 1811
19.68 1801
19.7 1679
19.72 1611
19.74 1609
19.76 1593
19.78 1644
19.8 1832
19.82 1974
19.84 2070
19.86 2094
19.88 2224
19.9 2243
19.92 2118
19.94 1958
19.96 1806
19.98 1638
20 1505
20.02 1508
20.04 1575
20.06 1551
20.08 1454
20.1 1591
20.12 1499
20.14 1522
20.16 1577
20.18 1470
20.2 1546
20.22 1501
20.24 1516
20.26 1541
20.28 1447
20.3 1510
20.32 1541
20.34 1506
20.36 1505
20.38 1578
20.4 1524
20.42 1585
20.44 1626
20.46 1559
20.48 1566
20.5 1611
20.52 1520
20.54 1591
20.56 1524
20.58 1507
20.6 1593
20.62 1582
20.64 1541
20.66 1618
20.68 1575
20.7 1482
20.72 1568
20.74 1580
20.76 1540
20.78 1575
20.8 1581
20.82 1602
20.84 1571
20.86 1632
20.88 1502
20.9 1546
20.92 1587
20.94 1602
20.96 1579
20.98 1559
21 1601
21.02 1592
21.04 1614
21.06 1545
21.08 1627
21.1 1586
21.12 1557
21.14 1614
21.16 1618
21.18 1547
21.2 1612
21.22 1571
21.24 1622
21.26 1560
21.28 1564
21.3 1565
21.32 1654
21.34 1613
21.36 1544
21.38 1540
21.4 1542
21.42 1583
21.44 1579
21.46 1563
21.48 1574
21.5 1480
21.52 1620
21.54 1607
21.56 1529
21.58 1591
21.6 1708
21.62 1617
21.64 1602
21.66 1666
21.68 1748
21.7 1698
21.72 1744
21.74 1784
21.76 1745
21.78 1763
21.8 1604
21.82 1605
21.84 1669
21.86 1616
21.88 1567
21.9 1552
21.92 1569
21.94 1532
21.96 1542
21.98 1617
22 1584
22.02 1592
22.04 1599
22.06 1621
22.08 1552
22.1 1579
22.12 1595
22.14 1528
22.16 1546
22.18 1596
22.2 1546
22.22 1627
22.24 1615
22.26 1505
22.28 1600
22.3 1553
22.32 1613
22.34 1582
22.36 1560
22.38 1560
22.4 1491
22.42 1573
22.44 1574
22.46 1574
22.48 1529
22.5 1561
22.52 1520
22.54 1508
22.56 1532
22.58 1576
22.6 1541
22.62 1550
22.64 1546
22.66 1525
22.68 1515
22.7 1560
22.72 1509
22.74 1592
22.76 1578
22.78 1554
22.8 1507
22.82 1534
22.84 1530
22.86 1589
22.88 1536
22.9 1540
22.92 1554
22.94 1629
22.96 1651
22.98 1667
23 1651
23.02 1620
23.04 1692
23.06 1595
23.08 1578
23.1 1589
23.12 1503
23.14 1523
23.16 1517
23.18 1590
23.2 1540
23.22 1507
23.24 1580
23.26 1483
23.28 1531
23.3 1533
23.32 1569
23.34 1489
23.36 1553
23.38 1505
23.4 1491
23.42 1463
23.44 1516
23.46 1576
23.48 1554
23.5 1615
23.52 1551
23.54 1554
23.56 1628
23.58 1605
23.6 1699
23.62 1711
23.64 1886
23.66 2048
23.68 2016
23.7 2054
23.72 2212
23.74 1989
23.76 1868
23.78 1729
23.8 1710
23.82 1542
23.84 1530
23.86 1517
23.88 1544
23.9 1517
23.92 1597
23.94 1589
23.96 1581
23.98 1520
24 1460
24.02 1602
24.04 1553
24.06 1539
24.08 1522
24.1 1439
24.12 1430
24.14 1462
24.16 1493
24.18 1487
24.2 1432
24.22 1462
24.24 1479
24.26 1462
24.28 1501
24.3 1463
24.32 1402
24.34 1491
24.36 1462
24.38 1452
24.4 1505
24.42 1423
24.44 1503
24.46 1480
24.48 1480
24.5 1438
24.52 1492
24.54 1485
24.56 1453
24.58 1417
24.6 1458
24.62 1563
24.64 1436
24.66 1411
24.68 1457
24.7 1522
24.72 1520
24.74 1497
24.76 1645
24.78 1707
24.8 1795
24.82 1798
24.84 1788
24.86 1853
24.88 1805
24.9 1691
24.92 1697
24.94 1576
24.96 1561
24.98 1518
25 1425
25.02 1412
25.04 1363
25.06 1507
25.08 1458
25.1 1420
25.12 1415
25.14 1394
25.16 1380
25.18 1441
25.2 1456
25.22 1418
25.24 1450
25.26 1458
25.28 1443
25.3 1509
25.32 1469
25.34 1446
25.36 1524
25.38 1514
25.4 1553
25.42 1584
25.44 1730
25.46 1855
25.48 1936
25.5 2020
25.52 2116
25.54 2121
25.56 1942
25.58 1810
25.6 1611
25.62 1598
25.64 1437
25.66 1486
25.68 1437
25.7 1495
25.72 1345
25.74 1367
25.76 1394
25.78 1360
25.8 1312
25.82 1379
25.84 1287
25.86 1386
25.88 1339
25.9 1397
25.92 1450
25.94 1337
25.96 1379
25.98 1347
26 1406
26.02 1383
26.04 1386
26.06 1373
26.08 1372
26.1 1366
26.12 1373
26.14 1400
26.16 1350
26.18 1349
26.2 1379
26.22 1386
26.24 1330
26.26 1373
26.28 1306
26.3 1385
26.32 1329
26.34 1303
26.36 1370
26.38 1388
26.4 1342
26.42 1330
26.44 1409
26.46 1431
26.48 1435
26.5 1482
26.52 1647
26.54 1682
26.56 1733
26.58 1750
26.6 1797
26.62 1748
26.64 1709
26.66 1590
26.68 1532
26.7 1415
26.72 1340
26.74 1304
26.76 1330
26.78 1388
26.8 1266
26.82 1355
26.84 1270
26.86 1274
26.88 1315
26.9 1352
26.92 1327
26.94 1311
26.96 1304
26.98 1320
27 1280
27.02 1302
27.04 1316
27.06 1267
27.08 1251
27.1 1301
27.12 1368
27.14 1338
27.16 1341
27.18 1243
27.2 1364
27.22 1372
27.24 1394
27.26 1369
27.28 1415
27.3 1455
27.32 1549
27.34 1597
27.36 1613
27.38 1705
27.4 1725
27.42 1836
27.44 1738
27.46 1716
27.48 1535
27.5 1428
27.52 1539
27.54 1362
27.56 1295
27.58 1302
27.6 1303
27.62 1319
27.64 1263
27.66 1332
27.68 1255
27.7 1222
27.72 1276
27.74 1338
27.76 1234
27.78 1257
27.8 1277
27.82 1253
27.84 1275
27.86 1248
27.88 1261
27.9 1224
27.92 1285
27.94 1230
27.96 1263
27.98 1302
28 1341
28.02 1303
28.04 1232
28.06 1304
28.08 1263
28.1 1310
28.12 1261
28.14 1281
28.16 1364
28.18 1379
28.2 1408
28.22 1441
28.24 1446
28.26 1398
28.28 1411
28.3 1346
28.32 1351
28.34 1301
28.36 1251
28.38 1303
28.4 1191
28.42 1240
28.44 1220
28.46 1142
28.48 1259
28.5 1230
28.52 1217
28.54 1217
28.56 1249
28.58 1265
28.6 1265
28.62 1294
28.64 1321
28.66 1271
28.68 1282
28.7 1362
28.72 1348
28.74 1440
28.76 1446
28.78 1572
28.8 1666
28.82 1651
28.84 1739
28.86 1611
28.88 1526
28.9 1554
28.92 1510
28.94 1546
28.96 1528
28.98 1571
29 1625
29.02 1694
29.04 1652
29.06 1587
29.08 1470
29.1 1353
29.12 1346
29.14 1316
29.16 1248
29.18 1246
29.2 1166
29.22 1174
29.24 1163
29.26 1154
29.28 1151
29.3 1149
29.32 1187
29.34 1229
29.36 1137
29.38 1215
29.4 1205
29.42 1206
29.44 1151
29.46 1202
29.48 1236
29.5 1212
29.52 1130
29.54 1181
29.56 1185
29.58 1200
29.6 1182
29.62 1174
29.64 1176
29.66 1190
29.68 1142
29.7 1205
29.72 1188
29.74 1079
29.76 1155
29.78 1264
29.8 1185
29.82 1219
29.84 1180
29.86 1161
29.88 1163
29.9 1160
29.92 1180
29.94 1165
29.96 1165
29.98 1168
30 1158