File: xrd-UiO-67/pxrddata/35-15.ASC
3 2481
3.02 2293
3.04 2226
3.06 2098
3.08 1967
3.1 1851
3.12 1893
3.14 1841
3.16 1828
3.18 1740
3.2 1800
3.22 1772
3.24 1797
3.26 1806
3.28 1729
3.3 1690
3.32 1781
3.34 1698
3.36 1629
3.38 1632
3.4 1593
3.42 1699
3.44 1707
3.46 1650
3.48 1616
3.5 1642
3.52 1716
3.54 1593
3.56 1619
3.58 1598
3.6 1615
3.62 1729
3.64 1615
3.66 1646
3.68 1671
3.7 1553
3.72 1652
3.74 1618
3.76 1654
3.78 1704
3.8 1757
3.82 1688
3.84 1747
3.86 1616
3.88 1720
3.9 1748
3.92 1789
3.94 1818
3.96 1854
3.98 1860
4 1957
4.02 2013
4.04 2080
4.06 2153
4.08 2177
4.1 2246
4.12 2188
4.14 2045
4.16 1915
4.18 1736
4.2 1632
4.22 1456
4.24 1474
4.26 1447
4.28 1418
4.3 1389
4.32 1326
4.34 1328
4.36 1340
4.38 1349
4.4 1412
4.42 1381
4.44 1303
4.46 1321
4.48 1384
4.5 1307
4.52 1392
4.54 1280
4.56 1355
4.58 1403
4.6 1415
4.62 1361
4.64 1381
4.66 1366
4.68 1385
4.7 1456
4.72 1423
4.74 1464
4.76 1479
4.78 1457
4.8 1509
4.82 1474
4.84 1533
4.86 1469
4.88 1595
4.9 1584
4.92 1664
4.94 1699
4.96 1764
4.98 1780
5 1762
5.02 1822
5.04 1978
5.06 1929
5.08 2016
5.1 2049
5.12 2128
5.14 2235
5.16 2337
5.18 2482
5.2 2587
5.22 2713
5.24 2859
5.26 2947
5.28 3083
5.3 3348
5.32 3638
5.34 4037
5.36 4475
5.38 5142
5.4 5528
5.42 5592
5.44 5027
5.46 4407
5.48 3951
5.5 3772
5.52 3734
5.54 3679
5.56 3817
5.58 4087
5.6 4321
5.62 4438
5.64 4753
5.66 5122
5.68 5719
5.7 6262
5.72 7371
5.74 8419
5.76 9244
5.78 8868
5.8 7202
5.82 5083
5.84 3474
5.86 2543
5.88 1921
5.9 1742
5.92 1552
5.94 1567
5.96 1438
5.98 1315
6 1277
6.02 1236
6.04 1259
6.06 1284
6.08 1206
6.1 1130
6.12 1237
6.14 1171
6.16 1147
6.18 1236
6.2 1225
6.22 1160
6.24 1120
6.26 1148
6.28 1135
6.3 1137
6.32 1121
6.34 1186
6.36 1151
6.38 1264
6.4 1234
6.42 1236
6.44 1235
6.46 1284
6.48 1286
6.5 1316
6.52 1316
6.54 1456
6.56 1439
6.58 1502
6.6 1654
6.62 1775
6.64 1735
6.66 1698
6.68 1637
6.7 1571
6.72 1600
6.74 1565
6.76 1513
6.78 1467
6.8 1332
6.82 1156
6.84 1146
6.86 1031
6.88 1053
6.9 934
6.92 934
6.94 942
6.96 969
6.98 967
7 913
7.02 890
7.04 947
7.06 984
7.08 940
7.1 888
7.12 906
7.14 931
7.16 938
7.18 886
7.2 942
7.22 908
7.24 905
7.26 874
7.28 893
7.3 941
7.32 913
7.34 914
7.36 912
7.38 906
7.4 908
7.42 898
7.44 869
7.46 822
7.48 870
7.5 912
7.52 876
7.54 881
7.56 851
7.58 889
7.6 907
7.62 848
7.64 890
7.66 894
7.68 931
7.7 879
7.72 927
7.74 869
7.76 897
7.78 914
7.8 861
7.82 927
7.84 922
7.86 890
7.88 907
7.9 912
7.92 936
7.94 951
7.96 896
7.98 945
8 874
8.02 939
8.04 952
8.06 944
8.08 947
8.1 981
8.12 992
8.14 1002
8.16 949
8.18 939
8.2 941
8.22 901
8.24 874
8.26 881
8.28 847
8.3 840
8.32 861
8.34 856
8.36 846
8.38 884
8.4 877
8.42 896
8.44 910
8.46 909
8.48 846
8.5 861
8.52 823
8.54 872
8.56 833
8.58 906
8.6 837
8.62 883
8.64 890
8.66 831
8.68 855
8.7 820
8.72 864
8.74 843
8.76 853
8.78 872
8.8 887
8.82 917
8.84 874
8.86 895
8.88 938
8.9 897
8.92 951
8.94 982
8.96 971
8.98 933
9 1038
9.02 1045
9.04 1060
9.06 1117
9.08 1151
9.1 1193
9.12 1185
9.14 1247
9.16 1287
9.18 1452
9.2 1486
9.22 1577
9.24 1749
9.26 1960
9.28 2179
9.3 2526
9.32 2908
9.34 2999
9.36 2596
9.38 1911
9.4 1472
9.42 1145
9.44 1069
9.46 1031
9.48 931
9.5 890
9.52 924
9.54 888
9.56 903
9.58 914
9.6 879
9.62 874
9.64 868
9.66 932
9.68 879
9.7 893
9.72 956
9.74 954
9.76 941
9.78 961
9.8 903
9.82 920
9.84 916
9.86 793
9.88 887
9.9 891
9.92 911
9.94 959
9.96 943
9.98 886
10 973
10.02 970
10.04 1017
10.06 1064
10.08 1096
10.1 1092
10.12 1147
10.14 1243
10.16 1263
10.18 1304
10.2 1239
10.22 1134
10.24 1023
10.26 974
10.28 944
10.3 928
10.32 892
10.34 841
10.36 831
10.38 919
10.4 877
10.42 888
10.44 867
10.46 923
10.48 904
10.5 881
10.52 899
10.54 929
10.56 925
10.58 947
10.6 977
10.62 1021
10.64 1048
10.66 1046
10.68 1096
10.7 1141
10.72 1182
10.74 1301
10.76 1354
10.78 1384
10.8 1398
10.82 1337
10.84 1341
10.86 1424
10.88 1432
10.9 1549
10.92 1703
10.94 1806
10.96 1860
10.98 1835
11 1562
11.02 1197
11.04 1066
11.06 952
11.08 897
11.1 954
11.12 881
11.14 911
11.16 872
11.18 825
11.2 894
11.22 890
11.24 858
11.26 880
11.28 860
11.3 936
11.32 960
11.34 989
11.36 1001
11.38 1008
11.4 1025
11.42 1097
11.44 1203
11.46 1240
11.48 1289
11.5 1224
11.52 1146
11.54 1070
11.56 1036
11.58 906
11.6 892
11.62 859
11.64 851
11.66 844
11.68 840
11.7 867
11.72 886
11.74 858
11.76 824
11.78 846
11.8 803
11.82 790
11.84 782
11.86 827
11.88 770
11.9 828
11.92 819
11.94 849
11.96 841
11.98 819
12 844
12.02 846
12.04 863
12.06 870
12.08 943
12.1 873
12.12 891
12.14 940
12.16 965
12.18 1026
12.2 991
12.22 975
12.24 998
12.26 902
12.28 918
12.3 885
12.32 864
12.34 858
12.36 859
12.38 828
12.4 849
12.42 846
12.44 832
12.46 828
12.48 863
12.5 806
12.52 793
12.54 771
12.56 854
12.58 813
12.6 871
12.62 853
12.64 755
12.66 844
12.68 803
12.7 794
12.72 841
12.74 791
12.76 772
12.78 833
12.8 804
12.82 822
12.84 871
12.86 813
12.88 812
12.9 791
12.92 792
12.94 788
12.96 835
12.98 786
13 788
13.02 821
13.04 834
13.06 784
13.08 873
13.1 812
13.12 834
13.14 827
13.16 897
13.18 846
13.2 868
13.22 879
13.24 918
13.26 962
13.28 894
13.3 879
13.32 883
13.34 865
13.36 838
13.38 840
13.4 842
13.42 868
13.44 932
13.46 898
13.48 903
13.5 894
13.52 801
13.54 801
13.56 850
13.58 832
13.6 816
13.62 803
13.64 862
13.66 856
13.68 841
13.7 809
13.72 831
13.74 816
13.76 863
13.78 818
13.8 824
13.82 808
13.84 814
13.86 832
13.88 855
13.9 847
13.92 832
13.94 846
13.96 849
13.98 814
14 858
14.02 828
14.04 848
14.06 864
14.08 831
14.1 820
14.12 860
14.14 827
14.16 893
14.18 925
14.2 939
14.22 916
14.24 842
14.26 946
14.28 951
14.3 945
14.32 937
14.34 998
14.36 992
14.38 967
14.4 962
14.42 963
14.44 933
14.46 882
14.48 874
14.5 874
14.52 877
14.54 918
14.56 904
14.58 846
14.6 878
14.62 896
14.64 876
14.66 901
14.68 879
14.7 892
14.72 919
14.74 914
14.76 976
14.78 944
14.8 969
14.82 939
14.84 963
14.86 947
14.88 902
14.9 906
14.92 961
14.94 856
14.96 911
14.98 914
15 930
15.02 880
15.04 899
15.06 924
15.08 894
15.1 894
15.12 916
15.14 901
15.16 920
15.18 922
15.2 923
15.22 935
15.24 993
15.26 939
15.28 971
15.3 930
15.32 951
15.34 932
15.36 930
15.38 947
15.4 936
15.42 925
15.44 878
15.46 889
15.48 893
15.5 915
15.52 938
15.54 974
15.56 934
15.58 895
15.6 925
15.62 927
15.64 862
15.66 914
15.68 957
15.7 930
15.72 964
15.74 910
15.76 911
15.78 940
15.8 1001
15.82 938
15.84 944
15.86 949
15.88 924
15.9 885
15.92 907
15.94 974
15.96 986
15.98 907
16 946
16.02 968
16.04 957
16.06 1016
16.08 1002
16.1 960
16.12 1032
16.14 1011
16.16 1047
16.18 1030
16.2 1045
16.22 1028
16.24 1078
16.26 1117
16.28 1076
16.3 1031
16.32 1021
16.34 980
16.36 969
16.38 1063
16.4 967
16.42 973
16.44 1007
16.46 979
16.48 974
16.5 978
16.52 1011
16.54 1004
16.56 972
16.58 1019
16.6 1094
16.62 1004
16.64 1030
16.66 1032
16.68 1040
16.7 1039
16.72 1102
16.74 1058
16.76 1006
16.78 1010
16.8 1051
16.82 1084
16.84 1079
16.86 1072
16.88 1117
16.9 1103
16.92 1157
16.94 1306
16.96 1409
16.98 1357
17 1307
17.02 1232
17.04 1163
17.06 1132
17.08 1126
17.1 1097
17.12 1079
17.14 1108
17.16 1130
17.18 1110
17.2 1131
17.22 1163
17.24 1149
17.26 1163
17.28 1171
17.3 1078
17.32 1090
17.34 1140
17.36 1083
17.38 1096
17.4 1133
17.42 1127
17.44 1119
17.46 1115
17.48 1176
17.5 1149
17.52 1156
17.54 1155
17.56 1130
17.58 1132
17.6 1164
17.62 1116
17.64 1137
17.66 1155
17.68 1156
17.7 1162
17.72 1143
17.74 1180
17.76 1230
17.78 1207
17.8 1206
17.82 1179
17.84 1161
17.86 1215
17.88 1194
17.9 1212
17.92 1145
17.94 1217
17.96 1152
17.98 1201
18 1241
18.02 1167
18.04 1198
18.06 1233
18.08 1145
18.1 1179
18.12 1185
18.14 1222
18.16 1245
18.18 1219
18.2 1258
18.22 1245
18.24 1214
18.26 1223
18.28 1255
18.3 1206
18.32 1211
18.34 1232
18.36 1217
18.38 1164
18.4 1263
18.42 1232
18.44 1289
18.46 1321
18.48 1212
18.5 1283
18.52 1273
18.54 1236
18.56 1272
18.58 1244
18.6 1386
18.62 1262
18.64 1313
18.66 1360
18.68 1390
18.7 1308
18.72 1396
18.74 1337
18.76 1416
18.78 1381
18.8 1378
18.82 1403
18.84 1358
18.86 1341
18.88 1362
18.9 1365
18.92 1303
18.94 1296
18.96 1333
18.98 1383
19 1416
19.02 1463
19.04 1471
19.06 1518
19.08 1480
19.1 1507
19.12 1571
19.14 1507
19.16 1483
19.18 1464
19.2 1439
19.22 1412
19.24 1406
19.26 1448
19.28 1375
19.3 1376
19.32 1425
19.34 1501
19.36 1505
19.38 1487
19.4 1499
19.42 1606
19.44 1547
19.46 1591
19.48 1623
19.5 1610
19.52 1565
19.54 1673
19.56 1622
19.58 1625
19.6 1637
19.62 1471
19.64 1512
19.66 1464
19.68 1479
19.7 1415
19.72 1462
19.74 1479
19.76 1440
19.78 1466
19.8 1463
19.82 1587
19.84 1627
19.86 1682
19.88 1544
19.9 1515
19.92 1512
19.94 1493
19.96 1434
19.98 1440
20 1429