File: xrd-UiO-67/pxrddata/35-12.ASC
3 2401
3.02 2293
3.04 2110
3.06 1947
3.08 1836
3.1 1845
3.12 1787
3.14 1705
3.16 1677
3.18 1645
3.2 1711
3.22 1596
3.24 1677
3.26 1570
3.28 1598
3.3 1602
3.32 1582
3.34 1553
3.36 1503
3.38 1519
3.4 1453
3.42 1482
3.44 1426
3.46 1459
3.48 1443
3.5 1405
3.52 1425
3.54 1353
3.56 1360
3.58 1408
3.6 1371
3.62 1360
3.64 1331
3.66 1251
3.68 1288
3.7 1255
3.72 1275
3.74 1267
3.76 1317
3.78 1232
3.8 1282
3.82 1260
3.84 1219
3.86 1230
3.88 1210
3.9 1261
3.92 1258
3.94 1217
3.96 1165
3.98 1212
4 1232
4.02 1230
4.04 1145
4.06 1168
4.08 1090
4.1 1086
4.12 1140
4.14 1093
4.16 1116
4.18 1159
4.2 1196
4.22 1101
4.24 1087
4.26 1083
4.28 1109
4.3 1050
4.32 1018
4.34 1112
4.36 1062
4.38 1095
4.4 1111
4.42 1053
4.44 1105
4.46 1097
4.48 1083
4.5 1040
4.52 1094
4.54 1067
4.56 1099
4.58 1065
4.6 996
4.62 1061
4.64 1018
4.66 1075
4.68 1056
4.7 1072
4.72 1074
4.74 1039
4.76 1032
4.78 987
4.8 1023
4.82 1095
4.84 1000
4.86 1122
4.88 1114
4.9 1001
4.92 1021
4.94 1042
4.96 1093
4.98 1071
5 1061
5.02 1046
5.04 1061
5.06 1081
5.08 1098
5.1 1085
5.12 1168
5.14 1171
5.16 1142
5.18 1110
5.2 1196
5.22 1183
5.24 1215
5.26 1252
5.28 1281
5.3 1325
5.32 1371
5.34 1440
5.36 1490
5.38 1608
5.4 1642
5.42 1651
5.44 1712
5.46 1610
5.48 1524
5.5 1425
5.52 1390
5.54 1314
5.56 1239
5.58 1115
5.6 1133
5.62 1050
5.64 997
5.66 972
5.68 980
5.7 935
5.72 914
5.74 945
5.76 883
5.78 858
5.8 880
5.82 846
5.84 841
5.86 917
5.88 895
5.9 853
5.92 845
5.94 825
5.96 808
5.98 834
6 835
6.02 777
6.04 798
6.06 788
6.08 781
6.1 758
6.12 810
6.14 787
6.16 770
6.18 787
6.2 746
6.22 759
6.24 787
6.26 731
6.28 759
6.3 686
6.32 819
6.34 777
6.36 744
6.38 758
6.4 712
6.42 760
6.44 720
6.46 763
6.48 739
6.5 693
6.52 740
6.54 732
6.56 708
6.58 712
6.6 748
6.62 675
6.64 714
6.66 762
6.68 738
6.7 744
6.72 773
6.74 747
6.76 739
6.78 686
6.8 695
6.82 667
6.84 709
6.86 683
6.88 695
6.9 691
6.92 705
6.94 709
6.96 677
6.98 709
7 707
7.02 712
7.04 702
7.06 668
7.08 688
7.1 705
7.12 658
7.14 646
7.16 686
7.18 660
7.2 724
7.22 695
7.24 638
7.26 686
7.28 694
7.3 657
7.32 692
7.34 709
7.36 699
7.38 629
7.4 698
7.42 638
7.44 644
7.46 680
7.48 709
7.5 655
7.52 710
7.54 662
7.56 627
7.58 652
7.6 670
7.62 675
7.64 675
7.66 630
7.68 663
7.7 683
7.72 678
7.74 680
7.76 612
7.78 624
7.8 675
7.82 642
7.84 617
7.86 666
7.88 633
7.9 626
7.92 639
7.94 665
7.96 636
7.98 625
8 647
8.02 637
8.04 637
8.06 643
8.08 612
8.1 643
8.12 631
8.14 619
8.16 645
8.18 636
8.2 610
8.22 627
8.24 575
8.26 656
8.28 660
8.3 665
8.32 641
8.34 609
8.36 614
8.38 649
8.4 609
8.42 617
8.44 619
8.46 649
8.48 634
8.5 625
8.52 630
8.54 614
8.56 622
8.58 638
8.6 642
8.62 598
8.64 653
8.66 639
8.68 607
8.7 595
8.72 652
8.74 605
8.76 626
8.78 583
8.8 652
8.82 576
8.84 612
8.86 632
8.88 673
8.9 682
8.92 647
8.94 652
8.96 642
8.98 623
9 594
9.02 614
9.04 660
9.06 633
9.08 638
9.1 657
9.12 640
9.14 697
9.16 654
9.18 687
9.2 691
9.22 713
9.24 750
9.26 717
9.28 777
9.3 820
9.32 839
9.34 876
9.36 891
9.38 890
9.4 806
9.42 795
9.44 829
9.46 789
9.48 741
9.5 748
9.52 716
9.54 686
9.56 646
9.58 646
9.6 622
9.62 640
9.64 642
9.66 651
9.68 610
9.7 629
9.72 610
9.74 645
9.76 606
9.78 620
9.8 570
9.82 629
9.84 639
9.86 616
9.88 617
9.9 542
9.92 592
9.94 573
9.96 611
9.98 604
10 589
10.02 582
10.04 595
10.06 624
10.08 575
10.1 584
10.12 578
10.14 598
10.16 608
10.18 583
10.2 593
10.22 557
10.24 585
10.26 614
10.28 573
10.3 590
10.32 609
10.34 595
10.36 578
10.38 585
10.4 608
10.42 571
10.44 592
10.46 593
10.48 637
10.5 573
10.52 596
10.54 597
10.56 601
10.58 591
10.6 607
10.62 607
10.64 621
10.66 630
10.68 626
10.7 671
10.72 669
10.74 658
10.76 668
10.78 644
10.8 684
10.82 663
10.84 691
10.86 647
10.88 627
10.9 635
10.92 616
10.94 587
10.96 618
10.98 594
11 596
11.02 577
11.04 575
11.06 590
11.08 564
11.1 564
11.12 566
11.14 588
11.16 569
11.18 573
11.2 553
11.22 517
11.24 574
11.26 558
11.28 576
11.3 565
11.32 555
11.34 569
11.36 549
11.38 570
11.4 576
11.42 599
11.44 553
11.46 566
11.48 556
11.5 543
11.52 593
11.54 580
11.56 564
11.58 551
11.6 612
11.62 523
11.64 571
11.66 586
11.68 530
11.7 585
11.72 558
11.74 595
11.76 540
11.78 551
11.8 585
11.82 541
11.84 560
11.86 559
11.88 546
11.9 580
11.92 550
11.94 523
11.96 592
11.98 588
12 568
12.02 538
12.04 550
12.06 575
12.08 537
12.1 557
12.12 587
12.14 592
12.16 558
12.18 585
12.2 585
12.22 586
12.24 534
12.26 555
12.28 542
12.3 607
12.32 556
12.34 564
12.36 614
12.38 573
12.4 567
12.42 600
12.44 603
12.46 565
12.48 567
12.5 562
12.52 562
12.54 589
12.56 541
12.58 587
12.6 558
12.62 564
12.64 556
12.66 564
12.68 567
12.7 558
12.72 577
12.74 582
12.76 561
12.78 568
12.8 576
12.82 613
12.84 616
12.86 584
12.88 572
12.9 591
12.92 573
12.94 598
12.96 609
12.98 584
13 586
13.02 564
13.04 558
13.06 642
13.08 596
13.1 568
13.12 585
13.14 596
13.16 586
13.18 606
13.2 589
13.22 597
13.24 585
13.26 618
13.28 640
13.3 568
13.32 604
13.34 566
13.36 556
13.38 603
13.4 570
13.42 598
13.44 594
13.46 597
13.48 568
13.5 616
13.52 602
13.54 588
13.56 586
13.58 596
13.6 601
13.62 603
13.64 593
13.66 599
13.68 579
13.7 609
13.72 597
13.74 624
13.76 600
13.78 630
13.8 577
13.82 622
13.84 639
13.86 640
13.88 646
13.9 603
13.92 615
13.94 599
13.96 599
13.98 647
14 628
14.02 607
14.04 635
14.06 588
14.08 608
14.1 610
14.12 650
14.14 651
14.16 616
14.18 701
14.2 621
14.22 631
14.24 669
14.26 646
14.28 591
14.3 669
14.32 660
14.34 644
14.36 644
14.38 615
14.4 655
14.42 680
14.44 612
14.46 703
14.48 679
14.5 680
14.52 684
14.54 691
14.56 632
14.58 638
14.6 657
14.62 661
14.64 677
14.66 677
14.68 646
14.7 671
14.72 656
14.74 675
14.76 688
14.78 674
14.8 669
14.82 704
14.84 654
14.86 624
14.88 639
14.9 652
14.92 687
14.94 639
14.96 671
14.98 706
15 692
15.02 658
15.04 652
15.06 648
15.08 682
15.1 682
15.12 646
15.14 660
15.16 673
15.18 698
15.2 676
15.22 651
15.24 673
15.26 693
15.28 677
15.3 698
15.32 725
15.34 742
15.36 723
15.38 693
15.4 706
15.42 648
15.44 731
15.46 735
15.48 730
15.5 685
15.52 735
15.54 722
15.56 714
15.58 718
15.6 737
15.62 693
15.64 770
15.66 688
15.68 711
15.7 674
15.72 685
15.74 733
15.76 725
15.78 737
15.8 689
15.82 694
15.84 708
15.86 733
15.88 744
15.9 731
15.92 754
15.94 731
15.96 748
15.98 742
16 747
16.02 718
16.04 750
16.06 741
16.08 701
16.1 672
16.12 719
16.14 751
16.16 734
16.18 759
16.2 808
16.22 732
16.24 746
16.26 742
16.28 767
16.3 776
16.32 756
16.34 803
16.36 714
16.38 831
16.4 732
16.42 762
16.44 767
16.46 808
16.48 732
16.5 827
16.52 786
16.54 793
16.56 809
16.58 819
16.6 875
16.62 796
16.64 763
16.66 857
16.68 831
16.7 807
16.72 834
16.74 877
16.76 868
16.78 857
16.8 858
16.82 928
16.84 964
16.86 1010
16.88 1062
16.9 1080
16.92 1199
16.94 1319
16.96 1413
16.98 1569
17 1694
17.02 1721
17.04 1706
17.06 1562
17.08 1363
17.1 1242
17.12 1153
17.14 1010
17.16 1002
17.18 973
17.2 900
17.22 906
17.24 907
17.26 884
17.28 899
17.3 870
17.32 865
17.34 878
17.36 897
17.38 932
17.4 886
17.42 851
17.44 923
17.46 894
17.48 872
17.5 934
17.52 899
17.54 916
17.56 928
17.58 929
17.6 899
17.62 883
17.64 946
17.66 951
17.68 1000
17.7 935
17.72 918
17.74 891
17.76 910
17.78 895
17.8 925
17.82 896
17.84 901
17.86 953
17.88 921
17.9 904
17.92 968
17.94 1012
17.96 958
17.98 932
18 944
18.02 952
18.04 879
18.06 932
18.08 899
18.1 930
18.12 969
18.14 979
18.16 981
18.18 963
18.2 992
18.22 953
18.24 937
18.26 961
18.28 975
18.3 963
18.32 979
18.34 969
18.36 1039
18.38 945
18.4 987
18.42 1061
18.44 958
18.46 983
18.48 989
18.5 1081
18.52 1064
18.54 1050
18.56 1031
18.58 1023
18.6 1029
18.62 974
18.64 1039
18.66 1013
18.68 1015
18.7 1078
18.72 1033
18.74 1127
18.76 1056
18.78 1038
18.8 1013
18.82 1021
18.84 1087
18.86 1013
18.88 1104
18.9 1038
18.92 1035
18.94 1058
18.96 1094
18.98 1088
19 1094
19.02 1078
19.04 1100
19.06 1119
19.08 1103
19.1 1095
19.12 1049
19.14 1084
19.16 1106
19.18 1112
19.2 1074
19.22 1078
19.24 1121
19.26 1111
19.28 1122
19.3 1108
19.32 1122
19.34 1174
19.36 1132
19.38 1122
19.4 1203
19.42 1136
19.44 1265
19.46 1149
19.48 1162
19.5 1184
19.52 1240
19.54 1228
19.56 1261
19.58 1202
19.6 1182
19.62 1189
19.64 1212
19.66 1250
19.68 1188
19.7 1273
19.72 1167
19.74 1227
19.76 1202
19.78 1184
19.8 1254
19.82 1179
19.84 1256
19.86 1152
19.88 1191
19.9 1216
19.92 1187
19.94 1275
19.96 1221
19.98 1213
20 1236