File: xrd-UiO-67/pxrddata/35-10.ASC
3 2357
3.02 2236
3.04 2078
3.06 2045
3.08 1819
3.1 1805
3.12 1778
3.14 1694
3.16 1743
3.18 1739
3.2 1605
3.22 1543
3.24 1610
3.26 1597
3.28 1595
3.3 1504
3.32 1546
3.34 1464
3.36 1500
3.38 1468
3.4 1430
3.42 1441
3.44 1455
3.46 1450
3.48 1424
3.5 1380
3.52 1388
3.54 1401
3.56 1306
3.58 1337
3.6 1354
3.62 1350
3.64 1384
3.66 1294
3.68 1285
3.7 1301
3.72 1318
3.74 1250
3.76 1225
3.78 1242
3.8 1220
3.82 1237
3.84 1228
3.86 1216
3.88 1245
3.9 1294
3.92 1249
3.94 1171
3.96 1240
3.98 1158
4 1171
4.02 1157
4.04 1181
4.06 1255
4.08 1107
4.1 1144
4.12 1152
4.14 1077
4.16 1113
4.18 1205
4.2 1132
4.22 1101
4.24 1134
4.26 1107
4.28 1084
4.3 1080
4.32 1068
4.34 1082
4.36 1100
4.38 1091
4.4 1085
4.42 1021
4.44 1061
4.46 1071
4.48 1084
4.5 1036
4.52 1004
4.54 989
4.56 985
4.58 1024
4.6 984
4.62 1068
4.64 1033
4.66 950
4.68 960
4.7 988
4.72 1049
4.74 981
4.76 1004
4.78 1026
4.8 962
4.82 1021
4.84 991
4.86 1015
4.88 1000
4.9 945
4.92 937
4.94 992
4.96 996
4.98 956
5 988
5.02 943
5.04 928
5.06 1015
5.08 983
5.1 984
5.12 998
5.14 981
5.16 986
5.18 979
5.2 959
5.22 944
5.24 950
5.26 956
5.28 901
5.3 974
5.32 929
5.34 999
5.36 952
5.38 977
5.4 877
5.42 966
5.44 976
5.46 968
5.48 943
5.5 909
5.52 928
5.54 911
5.56 910
5.58 923
5.6 848
5.62 894
5.64 849
5.66 893
5.68 880
5.7 928
5.72 874
5.74 862
5.76 835
5.78 860
5.8 891
5.82 854
5.84 837
5.86 852
5.88 849
5.9 820
5.92 804
5.94 842
5.96 829
5.98 815
6 763
6.02 817
6.04 815
6.06 784
6.08 807
6.1 830
6.12 753
6.14 784
6.16 804
6.18 817
6.2 748
6.22 761
6.24 786
6.26 783
6.28 795
6.3 745
6.32 750
6.34 745
6.36 789
6.38 728
6.4 762
6.42 769
6.44 797
6.46 795
6.48 741
6.5 782
6.52 761
6.54 702
6.56 734
6.58 756
6.6 745
6.62 753
6.64 756
6.66 745
6.68 726
6.7 748
6.72 793
6.74 738
6.76 701
6.78 746
6.8 751
6.82 784
6.84 757
6.86 740
6.88 709
6.9 702
6.92 733
6.94 725
6.96 717
6.98 691
7 720
7.02 728
7.04 751
7.06 721
7.08 680
7.1 699
7.12 695
7.14 699
7.16 703
7.18 668
7.2 704
7.22 681
7.24 730
7.26 740
7.28 703
7.3 698
7.32 658
7.34 745
7.36 711
7.38 669
7.4 677
7.42 700
7.44 718
7.46 690
7.48 685
7.5 709
7.52 703
7.54 687
7.56 686
7.58 671
7.6 685
7.62 718
7.64 664
7.66 712
7.68 661
7.7 714
7.72 644
7.74 688
7.76 693
7.78 695
7.8 665
7.82 686
7.84 666
7.86 703
7.88 685
7.9 689
7.92 731
7.94 707
7.96 705
7.98 643
8 659
8.02 678
8.04 667
8.06 680
8.08 680
8.1 645
8.12 649
8.14 684
8.16 648
8.18 648
8.2 706
8.22 635
8.24 635
8.26 647
8.28 666
8.3 636
8.32 671
8.34 681
8.36 651
8.38 655
8.4 629
8.42 610
8.44 663
8.46 613
8.48 639
8.5 665
8.52 641
8.54 613
8.56 681
8.58 634
8.6 626
8.62 654
8.64 641
8.66 644
8.68 646
8.7 624
8.72 635
8.74 655
8.76 635
8.78 677
8.8 660
8.82 647
8.84 652
8.86 601
8.88 569
8.9 627
8.92 650
8.94 620
8.96 650
8.98 625
9 652
9.02 616
9.04 661
9.06 609
9.08 639
9.1 632
9.12 599
9.14 611
9.16 613
9.18 674
9.2 623
9.22 631
9.24 598
9.26 608
9.28 624
9.3 654
9.32 667
9.34 615
9.36 639
9.38 682
9.4 640
9.42 612
9.44 631
9.46 635
9.48 640
9.5 670
9.52 641
9.54 628
9.56 599
9.58 643
9.6 685
9.62 662
9.64 606
9.66 628
9.68 682
9.7 632
9.72 622
9.74 666
9.76 617
9.78 597
9.8 681
9.82 618
9.84 620
9.86 676
9.88 621
9.9 642
9.92 599
9.94 631
9.96 597
9.98 620
10 633
10.02 594
10.04 636
10.06 665
10.08 586
10.1 603
10.12 591
10.14 600
10.16 641
10.18 586
10.2 601
10.22 616
10.24 600
10.26 637
10.28 584
10.3 620
10.32 600
10.34 588
10.36 608
10.38 584
10.4 578
10.42 583
10.44 549
10.46 582
10.48 591
10.5 547
10.52 607
10.54 564
10.56 624
10.58 558
10.6 548
10.62 600
10.64 599
10.66 554
10.68 582
10.7 591
10.72 520
10.74 581
10.76 574
10.78 609
10.8 606
10.82 588
10.84 596
10.86 599
10.88 604
10.9 554
10.92 560
10.94 591
10.96 576
10.98 599
11 576
11.02 578
11.04 593
11.06 571
11.08 574
11.1 563
11.12 571
11.14 557
11.16 585
11.18 556
11.2 644
11.22 565
11.24 601
11.26 594
11.28 610
11.3 615
11.32 571
11.34 560
11.36 579
11.38 552
11.4 561
11.42 572
11.44 570
11.46 577
11.48 565
11.5 605
11.52 565
11.54 564
11.56 601
11.58 594
11.6 606
11.62 563
11.64 570
11.66 571
11.68 596
11.7 558
11.72 574
11.74 588
11.76 591
11.78 560
11.8 586
11.82 586
11.84 549
11.86 530
11.88 572
11.9 574
11.92 545
11.94 568
11.96 615
11.98 556
12 564
12.02 589
12.04 578
12.06 566
12.08 546
12.1 594
12.12 562
12.14 551
12.16 567
12.18 555
12.2 589
12.22 594
12.24 573
12.26 608
12.28 625
12.3 605
12.32 624
12.34 584
12.36 596
12.38 552
12.4 596
12.42 569
12.44 616
12.46 594
12.48 597
12.5 561
12.52 573
12.54 627
12.56 602
12.58 591
12.6 599
12.62 603
12.64 576
12.66 609
12.68 580
12.7 587
12.72 607
12.74 597
12.76 598
12.78 577
12.8 610
12.82 604
12.84 612
12.86 594
12.88 628
12.9 609
12.92 588
12.94 634
12.96 568
12.98 593
13 601
13.02 638
13.04 619
13.06 581
13.08 601
13.1 591
13.12 606
13.14 615
13.16 595
13.18 616
13.2 597
13.22 664
13.24 618
13.26 642
13.28 660
13.3 595
13.32 621
13.34 601
13.36 648
13.38 606
13.4 617
13.42 660
13.44 584
13.46 612
13.48 639
13.5 652
13.52 612
13.54 628
13.56 570
13.58 635
13.6 638
13.62 633
13.64 618
13.66 622
13.68 617
13.7 576
13.72 622
13.74 591
13.76 661
13.78 642
13.8 644
13.82 595
13.84 594
13.86 610
13.88 623
13.9 600
13.92 596
13.94 632
13.96 597
13.98 624
14 630
14.02 624
14.04 638
14.06 604
14.08 622
14.1 615
14.12 666
14.14 659
14.16 665
14.18 625
14.2 646
14.22 613
14.24 657
14.26 643
14.28 688
14.3 666
14.32 662
14.34 663
14.36 656
14.38 658
14.4 640
14.42 642
14.44 640
14.46 628
14.48 665
14.5 659
14.52 668
14.54 665
14.56 635
14.58 643
14.6 655
14.62 700
14.64 640
14.66 661
14.68 695
14.7 659
14.72 657
14.74 661
14.76 677
14.78 667
14.8 680
14.82 711
14.84 647
14.86 630
14.88 693
14.9 660
14.92 656
14.94 683
14.96 652
14.98 655
15 677
15.02 654
15.04 651
15.06 630
15.08 643
15.1 691
15.12 689
15.14 688
15.16 665
15.18 674
15.2 717
15.22 704
15.24 731
15.26 664
15.28 699
15.3 761
15.32 677
15.34 722
15.36 718
15.38 725
15.4 715
15.42 724
15.44 736
15.46 739
15.48 742
15.5 722
15.52 699
15.54 721
15.56 744
15.58 734
15.6 710
15.62 752
15.64 687
15.66 698
15.68 739
15.7 755
15.72 710
15.74 739
15.76 759
15.78 778
15.8 717
15.82 772
15.84 734
15.86 767
15.88 753
15.9 730
15.92 709
15.94 743
15.96 777
15.98 749
16 787
16.02 773
16.04 767
16.06 727
16.08 761
16.1 846
16.12 797
16.14 833
16.16 774
16.18 769
16.2 735
16.22 787
16.24 789
16.26 829
16.28 790
16.3 803
16.32 783
16.34 820
16.36 823
16.38 755
16.4 807
16.42 815
16.44 788
16.46 863
16.48 801
16.5 809
16.52 829
16.54 778
16.56 788
16.58 738
16.6 849
16.62 841
16.64 823
16.66 816
16.68 892
16.7 885
16.72 845
16.74 857
16.76 871
16.78 889
16.8 887
16.82 933
16.84 943
16.86 935
16.88 1024
16.9 1092
16.92 1099
16.94 1223
16.96 1284
16.98 1332
17 1476
17.02 1495
17.04 1501
17.06 1473
17.08 1457
17.1 1307
17.12 1181
17.14 1029
17.16 955
17.18 953
17.2 934
17.22 942
17.24 933
17.26 883
17.28 869
17.3 936
17.32 909
17.34 941
17.36 919
17.38 852
17.4 950
17.42 954
17.44 892
17.46 874
17.48 932
17.5 919
17.52 896
17.54 908
17.56 883
17.58 912
17.6 881
17.62 943
17.64 895
17.66 926
17.68 909
17.7 889
17.72 936
17.74 916
17.76 947
17.78 937
17.8 913
17.82 874
17.84 983
17.86 992
17.88 934
17.9 955
17.92 1053
17.94 1040
17.96 985
17.98 992
18 978
18.02 951
18.04 1016
18.06 938
18.08 1008
18.1 999
18.12 1000
18.14 944
18.16 1043
18.18 1019
18.2 1005
18.22 1002
18.24 1054
18.26 1010
18.28 1002
18.3 975
18.32 1018
18.34 1033
18.36 1037
18.38 1002
18.4 1015
18.42 966
18.44 1019
18.46 976
18.48 1017
18.5 1060
18.52 1071
18.54 1014
18.56 1004
18.58 1045
18.6 1046
18.62 1052
18.64 1127
18.66 1100
18.68 1053
18.7 1102
18.72 1051
18.74 1078
18.76 1074
18.78 1062
18.8 1036
18.82 1119
18.84 1043
18.86 1124
18.88 1194
18.9 1130
18.92 1136
18.94 1153
18.96 1029
18.98 1102
19 1102
19.02 1055
19.04 1158
19.06 1123
19.08 1152
19.1 1134
19.12 1093
19.14 1087
19.16 1118
19.18 1120
19.2 1189
19.22 1084
19.24 1150
19.26 1158
19.28 1153
19.3 1142
19.32 1141
19.34 1166
19.36 1175
19.38 1142
19.4 1189
19.42 1150
19.44 1178
19.46 1194
19.48 1190
19.5 1137
19.52 1187
19.54 1121
19.56 1236
19.58 1084
19.6 1177
19.62 1205
19.64 1226
19.66 1199
19.68 1181
19.7 1201
19.72 1223
19.74 1171
19.76 1190
19.78 1237
19.8 1284
19.82 1234
19.84 1214
19.86 1236
19.88 1207
19.9 1231
19.92 1258
19.94 1224
19.96 1284
19.98 1260
20 1244