File: xrd-UiO-67/pxrddata/35-16.ASC
3 2290
3.02 2142
3.04 2059
3.06 1900
3.08 1850
3.1 1781
3.12 1727
3.14 1595
3.16 1500
3.18 1581
3.2 1541
3.22 1568
3.24 1519
3.26 1529
3.28 1521
3.3 1483
3.32 1525
3.34 1502
3.36 1416
3.38 1419
3.4 1414
3.42 1448
3.44 1461
3.46 1403
3.48 1397
3.5 1369
3.52 1386
3.54 1406
3.56 1396
3.58 1356
3.6 1342
3.62 1383
3.64 1345
3.66 1309
3.68 1315
3.7 1298
3.72 1341
3.74 1295
3.76 1284
3.78 1350
3.8 1306
3.82 1362
3.84 1236
3.86 1277
3.88 1250
3.9 1265
3.92 1300
3.94 1259
3.96 1227
3.98 1300
4 1267
4.02 1214
4.04 1249
4.06 1272
4.08 1259
4.1 1215
4.12 1189
4.14 1211
4.16 1306
4.18 1274
4.2 1281
4.22 1307
4.24 1242
4.26 1192
4.28 1203
4.3 1241
4.32 1117
4.34 1110
4.36 1140
4.38 1189
4.4 1127
4.42 1154
4.44 1118
4.46 1143
4.48 1133
4.5 1161
4.52 1148
4.54 1190
4.56 1080
4.58 1148
4.6 1155
4.62 1210
4.64 1189
4.66 1113
4.68 1067
4.7 1144
4.72 1120
4.74 1177
4.76 1152
4.78 1131
4.8 1090
4.82 1171
4.84 1208
4.86 1142
4.88 1262
4.9 1201
4.92 1190
4.94 1227
4.96 1277
4.98 1279
5 1276
5.02 1290
5.04 1234
5.06 1368
5.08 1375
5.1 1362
5.12 1362
5.14 1465
5.16 1452
5.18 1491
5.2 1597
5.22 1658
5.24 1726
5.26 1713
5.28 1889
5.3 1902
5.32 2019
5.34 2136
5.36 2428
5.38 2564
5.4 2867
5.42 3125
5.44 3351
5.46 3533
5.48 3476
5.5 3066
5.52 2544
5.54 2174
5.56 2037
5.58 1952
5.6 1788
5.62 1752
5.64 1857
5.66 1750
5.68 1728
5.7 1682
5.72 1789
5.74 1913
5.76 1981
5.78 1974
5.8 1952
5.82 1866
5.84 1847
5.86 1615
5.88 1531
5.9 1312
5.92 1231
5.94 1082
5.96 1055
5.98 1010
6 927
6.02 891
6.04 935
6.06 881
6.08 923
6.1 851
6.12 846
6.14 908
6.16 854
6.18 837
6.2 891
6.22 869
6.24 813
6.26 838
6.28 782
6.3 814
6.32 751
6.34 871
6.36 798
6.38 825
6.4 827
6.42 832
6.44 787
6.46 832
6.48 816
6.5 764
6.52 750
6.54 814
6.56 793
6.58 767
6.6 768
6.62 812
6.64 829
6.66 811
6.68 823
6.7 799
6.72 848
6.74 785
6.76 875
6.78 812
6.8 865
6.82 838
6.84 806
6.86 799
6.88 791
6.9 758
6.92 773
6.94 775
6.96 763
6.98 733
7 741
7.02 754
7.04 720
7.06 700
7.08 709
7.1 709
7.12 747
7.14 712
7.16 712
7.18 657
7.2 705
7.22 768
7.24 719
7.26 704
7.28 718
7.3 711
7.32 716
7.34 709
7.36 658
7.38 717
7.4 701
7.42 727
7.44 747
7.46 721
7.48 723
7.5 753
7.52 728
7.54 710
7.56 675
7.58 676
7.6 717
7.62 737
7.64 660
7.66 708
7.68 690
7.7 642
7.72 662
7.74 684
7.76 720
7.78 695
7.8 712
7.82 677
7.84 666
7.86 706
7.88 709
7.9 691
7.92 650
7.94 677
7.96 672
7.98 705
8 688
8.02 683
8.04 696
8.06 663
8.08 697
8.1 715
8.12 705
8.14 754
8.16 706
8.18 737
8.2 738
8.22 732
8.24 694
8.26 724
8.28 741
8.3 723
8.32 664
8.34 640
8.36 653
8.38 689
8.4 684
8.42 669
8.44 682
8.46 692
8.48 685
8.5 678
8.52 682
8.54 711
8.56 696
8.58 736
8.6 674
8.62 668
8.64 690
8.66 746
8.68 665
8.7 655
8.72 707
8.74 695
8.76 683
8.78 697
8.8 696
8.82 677
8.84 701
8.86 705
8.88 687
8.9 718
8.92 689
8.94 725
8.96 752
8.98 693
9 696
9.02 771
9.04 746
9.06 787
9.08 733
9.1 797
9.12 751
9.14 809
9.16 875
9.18 856
9.2 932
9.22 918
9.24 1041
9.26 1109
9.28 1153
9.3 1242
9.32 1318
9.34 1493
9.36 1631
9.38 1726
9.4 1694
9.42 1370
9.44 1154
9.46 974
9.48 904
9.5 854
9.52 765
9.54 698
9.56 738
9.58 714
9.6 751
9.62 723
9.64 685
9.66 647
9.68 681
9.7 718
9.72 747
9.74 667
9.76 697
9.78 699
9.8 672
9.82 700
9.84 685
9.86 698
9.88 734
9.9 747
9.92 704
9.94 721
9.96 744
9.98 681
10 775
10.02 732
10.04 769
10.06 708
10.08 801
10.1 735
10.12 722
10.14 746
10.16 743
10.18 774
10.2 820
10.22 822
10.24 783
10.26 773
10.28 741
10.3 745
10.32 721
10.34 717
10.36 717
10.38 759
10.4 713
10.42 701
10.44 711
10.46 691
10.48 740
10.5 733
10.52 713
10.54 756
10.56 727
10.58 733
10.6 742
10.62 754
10.64 794
10.66 785
10.68 815
10.7 825
10.72 903
10.74 943
10.76 981
10.78 1011
10.8 1126
10.82 1127
10.84 1106
10.86 1105
10.88 989
10.9 940
10.92 959
10.94 951
10.96 928
10.98 955
11 979
11.02 938
11.04 888
11.06 807
11.08 784
11.1 774
11.12 702
11.14 726
11.16 721
11.18 690
11.2 742
11.22 723
11.24 739
11.26 711
11.28 692
11.3 707
11.32 721
11.34 715
11.36 705
11.38 731
11.4 698
11.42 743
11.44 735
11.46 778
11.48 747
11.5 754
11.52 737
11.54 763
11.56 786
11.58 776
11.6 728
11.62 730
11.64 716
11.66 717
11.68 719
11.7 710
11.72 757
11.74 709
11.76 701
11.78 685
11.8 737
11.82 714
11.84 774
11.86 697
11.88 670
11.9 763
11.92 746
11.94 724
11.96 728
11.98 728
12 701
12.02 719
12.04 746
12.06 752
12.08 750
12.1 716
12.12 717
12.14 756
12.16 768
12.18 796
12.2 766
12.22 775
12.24 821
12.26 816
12.28 783
12.3 795
12.32 763
12.34 759
12.36 721
12.38 765
12.4 768
12.42 725
12.44 699
12.46 763
12.48 732
12.5 831
12.52 749
12.54 735
12.56 734
12.58 728
12.6 702
12.62 736
12.64 755
12.66 708
12.68 748
12.7 683
12.72 743
12.74 721
12.76 737
12.78 788
12.8 704
12.82 721
12.84 679
12.86 737
12.88 720
12.9 738
12.92 774
12.94 743
12.96 720
12.98 761
13 775
13.02 853
13.04 772
13.06 729
13.08 788
13.1 755
13.12 771
13.14 779
13.16 759
13.18 737
13.2 779
13.22 778
13.24 798
13.26 798
13.28 746
13.3 796
13.32 808
13.34 833
13.36 810
13.38 807
13.4 796
13.42 813
13.44 828
13.46 814
13.48 752
13.5 813
13.52 840
13.54 806
13.56 793
13.58 790
13.6 798
13.62 818
13.64 821
13.66 836
13.68 801
13.7 784
13.72 846
13.74 810
13.76 826
13.78 811
13.8 797
13.82 798
13.84 771
13.86 811
13.88 778
13.9 819
13.92 793
13.94 820
13.96 783
13.98 803
14 816
14.02 823
14.04 790
14.06 773
14.08 863
14.1 807
14.12 845
14.14 843
14.16 849
14.18 826
14.2 835
14.22 860
14.24 905
14.26 856
14.28 932
14.3 909
14.32 930
14.34 948
14.36 913
14.38 858
14.4 858
14.42 850
14.44 890
14.46 944
14.48 911
14.5 848
14.52 834
14.54 818
14.56 877
14.58 851
14.6 834
14.62 897
14.64 812
14.66 840
14.68 895
14.7 889
14.72 899
14.74 895
14.76 846
14.78 819
14.8 833
14.82 912
14.84 910
14.86 908
14.88 910
14.9 937
14.92 909
14.94 938
14.96 846
14.98 884
15 936
15.02 882
15.04 925
15.06 874
15.08 892
15.1 914
15.12 904
15.14 907
15.16 918
15.18 980
15.2 948
15.22 953
15.24 952
15.26 975
15.28 923
15.3 956
15.32 917
15.34 973
15.36 887
15.38 963
15.4 914
15.42 941
15.44 1008
15.46 933
15.48 978
15.5 995
15.52 965
15.54 878
15.56 939
15.58 1035
15.6 967
15.62 990
15.64 942
15.66 920
15.68 951
15.7 984
15.72 934
15.74 1020
15.76 1014
15.78 1011
15.8 1005
15.82 974
15.84 981
15.86 961
15.88 965
15.9 944
15.92 1002
15.94 1042
15.96 978
15.98 984
16 1006
16.02 1064
16.04 1040
16.06 972
16.08 1028
16.1 1081
16.12 1032
16.14 1034
16.16 1029
16.18 1065
16.2 1101
16.22 1083
16.24 1058
16.26 1048
16.28 1089
16.3 1067
16.32 1094
16.34 1103
16.36 1064
16.38 1090
16.4 1082
16.42 1120
16.44 1105
16.46 1131
16.48 1127
16.5 1124
16.52 1117
16.54 1122
16.56 1114
16.58 1099
16.6 1079
16.62 1091
16.64 1108
16.66 1137
16.68 1180
16.7 1139
16.72 1147
16.74 1185
16.76 1146
16.78 1125
16.8 1213
16.82 1241
16.84 1273
16.86 1286
16.88 1399
16.9 1446
16.92 1602
16.94 1762
16.96 1970
16.98 2249
17 2540
17.02 2704
17.04 2699
17.06 2452
17.08 2033
17.1 1694
17.12 1481
17.14 1374
17.16 1301
17.18 1227
17.2 1284
17.22 1268
17.24 1245
17.26 1293
17.28 1279
17.3 1304
17.32 1315
17.34 1286
17.36 1309
17.38 1328
17.4 1277
17.42 1218
17.44 1273
17.46 1258
17.48 1364
17.5 1329
17.52 1318
17.54 1369
17.56 1300
17.58 1286
17.6 1319
17.62 1364
17.64 1324
17.66 1275
17.68 1300
17.7 1327
17.72 1313
17.74 1363
17.76 1304
17.78 1372
17.8 1376
17.82 1301
17.84 1281
17.86 1386
17.88 1367
17.9 1375
17.92 1341
17.94 1360
17.96 1409
17.98 1411
18 1295
18.02 1353
18.04 1294
18.06 1356
18.08 1391
18.1 1380
18.12 1307
18.14 1402
18.16 1401
18.18 1359
18.2 1408
18.22 1326
18.24 1415
18.26 1331
18.28 1417
18.3 1406
18.32 1359
18.34 1495
18.36 1407
18.38 1481
18.4 1479
18.42 1408
18.44 1404
18.46 1381
18.48 1457
18.5 1416
18.52 1469
18.54 1483
18.56 1489
18.58 1516
18.6 1549
18.62 1485
18.64 1442
18.66 1571
18.68 1547
18.7 1584
18.72 1561
18.74 1471
18.76 1537
18.78 1484
18.8 1545
18.82 1542
18.84 1582
18.86 1549
18.88 1537
18.9 1532
18.92 1542
18.94 1600
18.96 1521
18.98 1586
19 1587
19.02 1557
19.04 1589
19.06 1539
19.08 1608
19.1 1606
19.12 1636
19.14 1714
19.16 1708
19.18 1726
19.2 1726
19.22 1703
19.24 1648
19.26 1627
19.28 1651
19.3 1707
19.32 1613
19.34 1700
19.36 1646
19.38 1751
19.4 1738
19.42 1829
19.44 1786
19.46 1860
19.48 1766
19.5 1841
19.52 1902
19.54 1901
19.56 1897
19.58 1858
19.6 1798
19.62 1837
19.64 1750
19.66 1758
19.68 1748
19.7 1735
19.72 1660
19.74 1670
19.76 1697
19.78 1595
19.8 1642
19.82 1711
19.84 1764
19.86 1792
19.88 1661
19.9 1763
19.92 1806
19.94 1729
19.96 1733
19.98 1685
20 1758