File: xrd-UiO-67/pxrddata/35-13.ASC
3 2647
3.02 2522
3.04 2465
3.06 2204
3.08 2194
3.1 2143
3.12 2041
3.14 1988
3.16 1923
3.18 1944
3.2 1865
3.22 1958
3.24 1820
3.26 1820
3.28 1724
3.3 1810
3.32 1792
3.34 1687
3.36 1725
3.38 1740
3.4 1627
3.42 1612
3.44 1539
3.46 1559
3.48 1596
3.5 1511
3.52 1528
3.54 1509
3.56 1535
3.58 1485
3.6 1458
3.62 1409
3.64 1406
3.66 1310
3.68 1383
3.7 1352
3.72 1308
3.74 1276
3.76 1272
3.78 1293
3.8 1292
3.82 1250
3.84 1205
3.86 1276
3.88 1227
3.9 1238
3.92 1244
3.94 1184
3.96 1154
3.98 1145
4 1143
4.02 1125
4.04 1147
4.06 1100
4.08 1114
4.1 1079
4.12 1032
4.14 1027
4.16 1021
4.18 1112
4.2 1033
4.22 968
4.24 941
4.26 1065
4.28 950
4.3 1023
4.32 962
4.34 1003
4.36 908
4.38 934
4.4 928
4.42 897
4.44 958
4.46 927
4.48 920
4.5 905
4.52 915
4.54 875
4.56 886
4.58 902
4.6 853
4.62 826
4.64 842
4.66 863
4.68 844
4.7 841
4.72 802
4.74 790
4.76 832
4.78 756
4.8 796
4.82 819
4.84 788
4.86 791
4.88 779
4.9 758
4.92 753
4.94 747
4.96 717
4.98 729
5 733
5.02 702
5.04 757
5.06 760
5.08 714
5.1 783
5.12 707
5.14 703
5.16 707
5.18 711
5.2 724
5.22 706
5.24 740
5.26 738
5.28 715
5.3 652
5.32 694
5.34 677
5.36 689
5.38 708
5.4 718
5.42 704
5.44 693
5.46 692
5.48 704
5.5 719
5.52 628
5.54 656
5.56 706
5.58 667
5.6 672
5.62 687
5.64 681
5.66 620
5.68 678
5.7 687
5.72 697
5.74 654
5.76 669
5.78 683
5.8 659
5.82 668
5.84 646
5.86 638
5.88 644
5.9 664
5.92 675
5.94 620
5.96 628
5.98 616
6 628
6.02 598
6.04 620
6.06 594
6.08 642
6.1 658
6.12 660
6.14 642
6.16 600
6.18 590
6.2 626
6.22 637
6.24 616
6.26 618
6.28 648
6.3 600
6.32 600
6.34 601
6.36 610
6.38 627
6.4 592
6.42 585
6.44 590
6.46 661
6.48 610
6.5 582
6.52 616
6.54 639
6.56 656
6.58 638
6.6 635
6.62 623
6.64 597
6.66 610
6.68 617
6.7 596
6.72 583
6.74 596
6.76 610
6.78 604
6.8 659
6.82 613
6.84 632
6.86 587
6.88 567
6.9 653
6.92 594
6.94 631
6.96 606
6.98 602
7 579
7.02 647
7.04 652
7.06 631
7.08 593
7.1 623
7.12 629
7.14 572
7.16 608
7.18 608
7.2 612
7.22 569
7.24 573
7.26 604
7.28 612
7.3 593
7.32 595
7.34 596
7.36 637
7.38 604
7.4 635
7.42 594
7.44 616
7.46 580
7.48 557
7.5 633
7.52 608
7.54 595
7.56 603
7.58 625
7.6 627
7.62 632
7.64 598
7.66 606
7.68 651
7.7 558
7.72 578
7.74 550
7.76 588
7.78 571
7.8 592
7.82 595
7.84 601
7.86 583
7.88 590
7.9 587
7.92 634
7.94 631
7.96 585
7.98 590
8 578
8.02 578
8.04 577
8.06 584
8.08 644
8.1 583
8.12 610
8.14 622
8.16 617
8.18 578
8.2 577
8.22 561
8.24 601
8.26 602
8.28 539
8.3 635
8.32 626
8.34 630
8.36 607
8.38 634
8.4 644
8.42 615
8.44 606
8.46 615
8.48 611
8.5 603
8.52 616
8.54 612
8.56 633
8.58 644
8.6 645
8.62 634
8.64 676
8.66 738
8.68 708
8.7 757
8.72 725
8.74 773
8.76 806
8.78 811
8.8 833
8.82 955
8.84 987
8.86 1039
8.88 1164
8.9 1208
8.92 1278
8.94 1433
8.96 1400
8.98 1525
9 1406
9.02 1385
9.04 1292
9.06 1244
9.08 1159
9.1 1075
9.12 1029
9.14 1000
9.16 981
9.18 860
9.2 830
9.22 826
9.24 763
9.26 756
9.28 712
9.3 728
9.32 692
9.34 727
9.36 683
9.38 691
9.4 661
9.42 689
9.44 706
9.46 696
9.48 638
9.5 664
9.52 655
9.54 666
9.56 649
9.58 687
9.6 678
9.62 683
9.64 643
9.66 698
9.68 703
9.7 700
9.72 743
9.74 703
9.76 755
9.78 760
9.8 837
9.82 827
9.84 861
9.86 932
9.88 1006
9.9 1090
9.92 1125
9.94 1176
9.96 1137
9.98 1052
10 1112
10.02 1065
10.04 960
10.06 897
10.08 871
10.1 861
10.12 782
10.14 724
10.16 706
10.18 672
10.2 663
10.22 634
10.24 614
10.26 613
10.28 601
10.3 597
10.32 629
10.34 542
10.36 572
10.38 588
10.4 555
10.42 610
10.44 573
10.46 608
10.48 593
10.5 588
10.52 590
10.54 576
10.56 575
10.58 583
10.6 606
10.62 604
10.64 556
10.66 552
10.68 589
10.7 615
10.72 572
10.74 592
10.76 565
10.78 592
10.8 533
10.82 575
10.84 590
10.86 561
10.88 579
10.9 595
10.92 581
10.94 603
10.96 537
10.98 578
11 611
11.02 585
11.04 575
11.06 566
11.08 575
11.1 555
11.12 603
11.14 550
11.16 561
11.18 595
11.2 581
11.22 551
11.24 559
11.26 551
11.28 558
11.3 600
11.32 575
11.34 613
11.36 561
11.38 526
11.4 589
11.42 547
11.44 590
11.46 607
11.48 583
11.5 553
11.52 526
11.54 529
11.56 538
11.58 534
11.6 554
11.62 541
11.64 546
11.66 563
11.68 597
11.7 562
11.72 523
11.74 605
11.76 585
11.78 553
11.8 551
11.82 551
11.84 510
11.86 571
11.88 556
11.9 583
11.92 597
11.94 551
11.96 560
11.98 552
12 555
12.02 589
12.04 582
12.06 619
12.08 566
12.1 536
12.12 569
12.14 565
12.16 605
12.18 543
12.2 572
12.22 597
12.24 594
12.26 589
12.28 611
12.3 618
12.32 555
12.34 600
12.36 635
12.38 599
12.4 555
12.42 619
12.44 612
12.46 611
12.48 602
12.5 585
12.52 652
12.54 673
12.56 644
12.58 696
12.6 701
12.62 679
12.64 703
12.66 714
12.68 721
12.7 735
12.72 728
12.74 739
12.76 718
12.78 732
12.8 695
12.82 681
12.84 630
12.86 659
12.88 662
12.9 692
12.92 638
12.94 636
12.96 585
12.98 601
13 659
13.02 642
13.04 677
13.06 622
13.08 578
13.1 633
13.12 613
13.14 685
13.16 664
13.18 714
13.2 697
13.22 693
13.24 666
13.26 658
13.28 657
13.3 753
13.32 727
13.34 739
13.36 807
13.38 798
13.4 800
13.42 784
13.44 752
13.46 776
13.48 721
13.5 745
13.52 707
13.54 663
13.56 682
13.58 683
13.6 651
13.62 634
13.64 619
13.66 622
13.68 641
13.7 600
13.72 562
13.74 685
13.76 597
13.78 622
13.8 609
13.82 643
13.84 619
13.86 585
13.88 569
13.9 599
13.92 612
13.94 667
13.96 625
13.98 642
14 657
14.02 664
14.04 626
14.06 631
14.08 650
14.1 639
14.12 612
14.14 626
14.16 677
14.18 678
14.2 631
14.22 646
14.24 648
14.26 656
14.28 679
14.3 688
14.32 636
14.34 650
14.36 632
14.38 672
14.4 669
14.42 686
14.44 669
14.46 695
14.48 672
14.5 666
14.52 656
14.54 676
14.56 702
14.58 695
14.6 646
14.62 693
14.64 668
14.66 682
14.68 697
14.7 682
14.72 682
14.74 714
14.76 666
14.78 695
14.8 696
14.82 732
14.84 715
14.86 673
14.88 670
14.9 704
14.92 686
14.94 699
14.96 702
14.98 689
15 747
15.02 703
15.04 667
15.06 717
15.08 680
15.1 702
15.12 701
15.14 733
15.16 717
15.18 772
15.2 717
15.22 721
15.24 733
15.26 715
15.28 695
15.3 704
15.32 708
15.34 738
15.36 752
15.38 740
15.4 744
15.42 704
15.44 711
15.46 776
15.48 767
15.5 711
15.52 739
15.54 747
15.56 746
15.58 734
15.6 768
15.62 695
15.64 720
15.66 751
15.68 756
15.7 770
15.72 774
15.74 795
15.76 759
15.78 768
15.8 713
15.82 772
15.84 729
15.86 746
15.88 755
15.9 739
15.92 763
15.94 762
15.96 774
15.98 780
16 745
16.02 711
16.04 822
16.06 750
16.08 758
16.1 762
16.12 814
16.14 762
16.16 754
16.18 763
16.2 800
16.22 775
16.24 827
16.26 862
16.28 847
16.3 765
16.32 757
16.34 848
16.36 803
16.38 818
16.4 821
16.42 818
16.44 843
16.46 809
16.48 836
16.5 842
16.52 818
16.54 809
16.56 853
16.58 854
16.6 879
16.62 878
16.64 868
16.66 901
16.68 886
16.7 894
16.72 914
16.74 942
16.76 989
16.78 939
16.8 959
16.82 1018
16.84 1012
16.86 1113
16.88 1142
16.9 1201
16.92 1332
16.94 1420
16.96 1588
16.98 1621
17 1674
17.02 1707
17.04 1553
17.06 1571
17.08 1554
17.1 1377
17.12 1369
17.14 1281
17.16 1219
17.18 1102
17.2 1034
17.22 966
17.24 1039
17.26 1014
17.28 914
17.3 956
17.32 1020
17.34 979
17.36 958
17.38 971
17.4 905
17.42 958
17.44 960
17.46 970
17.48 974
17.5 930
17.52 900
17.54 972
17.56 994
17.58 978
17.6 952
17.62 1007
17.64 979
17.66 961
17.68 968
17.7 1029
17.72 966
17.74 1070
17.76 1044
17.78 999
17.8 1011
17.82 1058
17.84 1012
17.86 1018
17.88 1050
17.9 1037
17.92 1051
17.94 1007
17.96 987
17.98 1061
18 1059
18.02 1059
18.04 1046
18.06 1071
18.08 1035
18.1 1035
18.12 1015
18.14 1082
18.16 1052
18.18 1024
18.2 1093
18.22 1087
18.24 1122
18.26 1078
18.28 1100
18.3 1122
18.32 1101
18.34 1125
18.36 1097
18.38 1132
18.4 1101
18.42 1078
18.44 1179
18.46 1107
18.48 1189
18.5 1133
18.52 1096
18.54 1140
18.56 1136
18.58 1119
18.6 1139
18.62 1142
18.64 1116
18.66 1179
18.68 1156
18.7 1172
18.72 1121
18.74 1194
18.76 1141
18.78 1238
18.8 1138
18.82 1170
18.84 1136
18.86 1184
18.88 1161
18.9 1219
18.92 1175
18.94 1215
18.96 1200
18.98 1233
19 1261
19.02 1240
19.04 1299
19.06 1191
19.08 1157
19.1 1239
19.12 1237
19.14 1211
19.16 1272
19.18 1203
19.2 1199
19.22 1216
19.24 1282
19.26 1244
19.28 1230
19.3 1296
19.32 1239
19.34 1214
19.36 1189
19.38 1234
19.4 1228
19.42 1219
19.44 1239
19.46 1264
19.48 1255
19.5 1287
19.52 1263
19.54 1325
19.56 1311
19.58 1348
19.6 1298
19.62 1263
19.64 1400
19.66 1321
19.68 1352
19.7 1325
19.72 1348
19.74 1355
19.76 1340
19.78 1386
19.8 1428
19.82 1371
19.84 1477
19.86 1510
19.88 1461
19.9 1556
19.92 1511
19.94 1560
19.96 1499
19.98 1545
20 1529