File: xrd-UiO-67/pxrddata/35-14.ASC
3 2341
3.02 2129
3.04 2068
3.06 1977
3.08 1803
3.1 1744
3.12 1736
3.14 1664
3.16 1637
3.18 1623
3.2 1582
3.22 1611
3.24 1641
3.26 1593
3.28 1597
3.3 1522
3.32 1567
3.34 1456
3.36 1468
3.38 1481
3.4 1453
3.42 1473
3.44 1450
3.46 1443
3.48 1347
3.5 1358
3.52 1306
3.54 1316
3.56 1303
3.58 1304
3.6 1296
3.62 1287
3.64 1327
3.66 1285
3.68 1294
3.7 1233
3.72 1183
3.74 1205
3.76 1215
3.78 1211
3.8 1172
3.82 1140
3.84 1165
3.86 1235
3.88 1222
3.9 1141
3.92 1109
3.94 1175
3.96 1138
3.98 1130
4 1101
4.02 1159
4.04 1076
4.06 1124
4.08 1057
4.1 1065
4.12 1088
4.14 1026
4.16 1094
4.18 1025
4.2 1040
4.22 1052
4.24 1049
4.26 1102
4.28 995
4.3 938
4.32 1035
4.34 990
4.36 938
4.38 983
4.4 959
4.42 1023
4.44 985
4.46 973
4.48 941
4.5 985
4.52 953
4.54 948
4.56 973
4.58 947
4.6 939
4.62 941
4.64 935
4.66 923
4.68 909
4.7 954
4.72 896
4.74 872
4.76 956
4.78 882
4.8 924
4.82 872
4.84 890
4.86 856
4.88 839
4.9 912
4.92 881
4.94 858
4.96 893
4.98 903
5 871
5.02 915
5.04 902
5.06 832
5.08 882
5.1 874
5.12 870
5.14 846
5.16 826
5.18 794
5.2 839
5.22 839
5.24 871
5.26 794
5.28 892
5.3 821
5.32 793
5.34 800
5.36 831
5.38 868
5.4 810
5.42 800
5.44 823
5.46 802
5.48 761
5.5 788
5.52 897
5.54 829
5.56 842
5.58 826
5.6 790
5.62 818
5.64 838
5.66 844
5.68 870
5.7 849
5.72 813
5.74 782
5.76 843
5.78 833
5.8 822
5.82 791
5.84 855
5.86 805
5.88 766
5.9 773
5.92 832
5.94 804
5.96 821
5.98 810
6 784
6.02 788
6.04 796
6.06 794
6.08 772
6.1 801
6.12 805
6.14 803
6.16 777
6.18 783
6.2 854
6.22 850
6.24 804
6.26 859
6.28 825
6.3 837
6.32 835
6.34 738
6.36 805
6.38 781
6.4 798
6.42 844
6.44 789
6.46 811
6.48 792
6.5 809
6.52 819
6.54 830
6.56 831
6.58 801
6.6 843
6.62 828
6.64 831
6.66 769
6.68 782
6.7 762
6.72 782
6.74 777
6.76 813
6.78 815
6.8 777
6.82 767
6.84 803
6.86 779
6.88 799
6.9 766
6.92 844
6.94 810
6.96 796
6.98 803
7 829
7.02 783
7.04 858
7.06 801
7.08 798
7.1 817
7.12 820
7.14 783
7.16 784
7.18 839
7.2 793
7.22 782
7.24 753
7.26 800
7.28 773
7.3 775
7.32 759
7.34 734
7.36 764
7.38 794
7.4 821
7.42 848
7.44 797
7.46 798
7.48 785
7.5 789
7.52 797
7.54 859
7.56 776
7.58 813
7.6 818
7.62 785
7.64 731
7.66 814
7.68 797
7.7 804
7.72 745
7.74 789
7.76 777
7.78 751
7.8 786
7.82 764
7.84 814
7.86 798
7.88 784
7.9 791
7.92 790
7.94 740
7.96 770
7.98 837
8 764
8.02 797
8.04 789
8.06 780
8.08 760
8.1 750
8.12 742
8.14 805
8.16 760
8.18 787
8.2 772
8.22 799
8.24 777
8.26 768
8.28 784
8.3 782
8.32 782
8.34 765
8.36 788
8.38 795
8.4 767
8.42 755
8.44 764
8.46 778
8.48 796
8.5 769
8.52 769
8.54 790
8.56 786
8.58 784
8.6 800
8.62 760
8.64 796
8.66 772
8.68 797
8.7 789
8.72 762
8.74 749
8.76 802
8.78 785
8.8 760
8.82 734
8.84 719
8.86 781
8.88 732
8.9 765
8.92 724
8.94 751
8.96 746
8.98 813
9 803
9.02 756
9.04 740
9.06 821
9.08 785
9.1 828
9.12 750
9.14 754
9.16 741
9.18 778
9.2 798
9.22 799
9.24 764
9.26 778
9.28 807
9.3 762
9.32 786
9.34 762
9.36 788
9.38 781
9.4 736
9.42 753
9.44 748
9.46 774
9.48 786
9.5 793
9.52 770
9.54 787
9.56 743
9.58 754
9.6 737
9.62 766
9.64 759
9.66 778
9.68 770
9.7 775
9.72 788
9.74 754
9.76 785
9.78 780
9.8 773
9.82 718
9.84 768
9.86 781
9.88 790
9.9 776
9.92 762
9.94 724
9.96 771
9.98 742
10 782
10.02 758
10.04 743
10.06 750
10.08 806
10.1 712
10.12 784
10.14 753
10.16 701
10.18 774
10.2 778
10.22 753
10.24 755
10.26 769
10.28 832
10.3 781
10.32 774
10.34 770
10.36 761
10.38 753
10.4 745
10.42 740
10.44 774
10.46 770
10.48 756
10.5 753
10.52 773
10.54 756
10.56 718
10.58 784
10.6 730
10.62 770
10.64 753
10.66 755
10.68 795
10.7 730
10.72 784
10.74 782
10.76 784
10.78 766
10.8 758
10.82 796
10.84 731
10.86 775
10.88 788
10.9 768
10.92 795
10.94 720
10.96 743
10.98 781
11 774
11.02 703
11.04 731
11.06 772
11.08 711
11.1 752
11.12 764
11.14 769
11.16 761
11.18 771
11.2 773
11.22 768
11.24 779
11.26 778
11.28 738
11.3 777
11.32 730
11.34 797
11.36 740
11.38 791
11.4 779
11.42 755
11.44 788
11.46 822
11.48 765
11.5 805
11.52 734
11.54 770
11.56 739
11.58 797
11.6 766
11.62 813
11.64 829
11.66 800
11.68 786
11.7 832
11.72 745
11.74 790
11.76 759
11.78 798
11.8 772
11.82 768
11.84 798
11.86 816
11.88 838
11.9 807
11.92 803
11.94 753
11.96 784
11.98 782
12 781
12.02 796
12.04 813
12.06 807
12.08 734
12.1 807
12.12 789
12.14 759
12.16 784
12.18 806
12.2 760
12.22 769
12.24 755
12.26 760
12.28 828
12.3 809
12.32 787
12.34 815
12.36 785
12.38 798
12.4 797
12.42 850
12.44 818
12.46 861
12.48 813
12.5 840
12.52 819
12.54 770
12.56 813
12.58 792
12.6 794
12.62 850
12.64 810
12.66 869
12.68 889
12.7 809
12.72 821
12.74 843
12.76 845
12.78 844
12.8 829
12.82 867
12.84 831
12.86 854
12.88 840
12.9 829
12.92 826
12.94 820
12.96 839
12.98 833
13 830
13.02 879
13.04 818
13.06 858
13.08 846
13.1 875
13.12 846
13.14 821
13.16 804
13.18 884
13.2 852
13.22 849
13.24 854
13.26 832
13.28 943
13.3 882
13.32 877
13.34 919
13.36 877
13.38 872
13.4 887
13.42 878
13.44 905
13.46 848
13.48 842
13.5 896
13.52 861
13.54 859
13.56 903
13.58 849
13.6 846
13.62 874
13.64 892
13.66 882
13.68 888
13.7 857
13.72 874
13.74 901
13.76 908
13.78 914
13.8 909
13.82 911
13.84 901
13.86 874
13.88 897
13.9 903
13.92 832
13.94 853
13.96 852
13.98 902
14 925
14.02 908
14.04 888
14.06 956
14.08 903
14.1 901
14.12 912
14.14 912
14.16 887
14.18 905
14.2 919
14.22 940
14.24 934
14.26 972
14.28 940
14.3 917
14.32 892
14.34 918
14.36 966
14.38 976
14.4 897
14.42 938
14.44 929
14.46 861
14.48 905
14.5 927
14.52 958
14.54 985
14.56 962
14.58 974
14.6 959
14.62 944
14.64 921
14.66 970
14.68 920
14.7 1019
14.72 1062
14.74 970
14.76 966
14.78 976
14.8 946
14.82 966
14.84 923
14.86 951
14.88 993
14.9 1020
14.92 953
14.94 997
14.96 971
14.98 994
15 990
15.02 1019
15.04 967
15.06 1006
15.08 999
15.1 1007
15.12 1032
15.14 1012
15.16 1004
15.18 993
15.2 994
15.22 992
15.24 1014
15.26 1007
15.28 1019
15.3 1057
15.32 1108
15.34 1060
15.36 1068
15.38 1106
15.4 1015
15.42 1091
15.44 1128
15.46 1025
15.48 1039
15.5 1117
15.52 1067
15.54 1124
15.56 1033
15.58 1039
15.6 1055
15.62 1049
15.64 1112
15.66 1049
15.68 1084
15.7 1056
15.72 1180
15.74 1114
15.76 1119
15.78 1132
15.8 1140
15.82 1124
15.84 1125
15.86 1102
15.88 1131
15.9 1130
15.92 1146
15.94 1179
15.96 1149
15.98 1187
16 1199
16.02 1219
16.04 1175
16.06 1184
16.08 1146
16.1 1149
16.12 1186
16.14 1214
16.16 1208
16.18 1209
16.2 1150
16.22 1171
16.24 1170
16.26 1174
16.28 1178
16.3 1221
16.32 1206
16.34 1147
16.36 1175
16.38 1217
16.4 1291
16.42 1262
16.44 1145
16.46 1225
16.48 1169
16.5 1275
16.52 1206
16.54 1192
16.56 1240
16.58 1338
16.6 1243
16.62 1290
16.64 1258
16.66 1227
16.68 1295
16.7 1328
16.72 1310
16.74 1340
16.76 1319
16.78 1368
16.8 1407
16.82 1490
16.84 1411
16.86 1495
16.88 1535
16.9 1586
16.92 1684
16.94 1706
16.96 1865
16.98 2002
17 2116
17.02 2073
17.04 2117
17.06 2054
17.08 1957
17.1 1825
17.12 1737
17.14 1568
17.16 1514
17.18 1465
17.2 1483
17.22 1423
17.24 1380
17.26 1380
17.28 1422
17.3 1380
17.32 1426
17.34 1476
17.36 1423
17.38 1463
17.4 1426
17.42 1485
17.44 1485
17.46 1430
17.48 1490
17.5 1419
17.52 1455
17.54 1456
17.56 1450
17.58 1415
17.6 1530
17.62 1450
17.64 1489
17.66 1528
17.68 1527
17.7 1512
17.72 1495
17.74 1531
17.76 1539
17.78 1551
17.8 1517
17.82 1527
17.84 1515
17.86 1572
17.88 1549
17.9 1591
17.92 1575
17.94 1584
17.96 1553
17.98 1600
18 1521
18.02 1534
18.04 1521
18.06 1526
18.08 1644
18.1 1594
18.12 1591
18.14 1643
18.16 1663
18.18 1686
18.2 1752
18.22 1654
18.24 1661
18.26 1683
18.28 1698
18.3 1698
18.32 1656
18.34 1690
18.36 1700
18.38 1699
18.4 1692
18.42 1621
18.44 1688
18.46 1720
18.48 1709
18.5 1716
18.52 1738
18.54 1682
18.56 1747
18.58 1742
18.6 1748
18.62 1728
18.64 1652
18.66 1797
18.68 1794
18.7 1825
18.72 1883
18.74 1801
18.76 1772
18.78 1806
18.8 1800
18.82 1845
18.84 1811
18.86 1864
18.88 1848
18.9 1862
18.92 1817
18.94 1776
18.96 1920
18.98 1779
19 1903
19.02 1835
19.04 1936
19.06 1833
19.08 1841
19.1 1870
19.12 1944
19.14 1841
19.16 1893
19.18 1881
19.2 1895
19.22 1879
19.24 1850
19.26 2011
19.28 1937
19.3 1879
19.32 1960
19.34 2013
19.36 1952
19.38 2017
19.4 2002
19.42 1938
19.44 1980
19.46 1909
19.48 2020
19.5 2060
19.52 2056
19.54 2090
19.56 2022
19.58 1964
19.6 2088
19.62 2082
19.64 2036
19.66 2082
19.68 2056
19.7 2005
19.72 2100
19.74 2104
19.76 2159
19.78 2038
19.8 2137
19.82 2073
19.84 2083
19.86 2121
19.88 2141
19.9 2133
19.92 2152
19.94 2185
19.96 2156
19.98 2129
20 2201