File: xrd-UiO-67/pxrddata/35-24.ASC
3 2390
3.02 2221
3.04 2015
3.06 1886
3.08 1752
3.1 1771
3.12 1630
3.14 1646
3.16 1593
3.18 1512
3.2 1626
3.22 1527
3.24 1530
3.26 1484
3.28 1535
3.3 1505
3.32 1436
3.34 1491
3.36 1436
3.38 1408
3.4 1333
3.42 1362
3.44 1362
3.46 1367
3.48 1303
3.5 1317
3.52 1313
3.54 1284
3.56 1380
3.58 1270
3.6 1206
3.62 1265
3.64 1258
3.66 1246
3.68 1246
3.7 1186
3.72 1246
3.74 1204
3.76 1172
3.78 1204
3.8 1144
3.82 1198
3.84 1163
3.86 1166
3.88 1145
3.9 1142
3.92 1152
3.94 1200
3.96 1134
3.98 1039
4 1081
4.02 1105
4.04 1131
4.06 1132
4.08 1068
4.1 1032
4.12 1046
4.14 1005
4.16 1057
4.18 1089
4.2 1098
4.22 1010
4.24 1025
4.26 1016
4.28 968
4.3 994
4.32 1098
4.34 978
4.36 1000
4.38 1044
4.4 973
4.42 996
4.44 976
4.46 987
4.48 976
4.5 987
4.52 971
4.54 1008
4.56 953
4.58 950
4.6 926
4.62 975
4.64 931
4.66 958
4.68 940
4.7 917
4.72 864
4.74 945
4.76 976
4.78 981
4.8 918
4.82 929
4.84 864
4.86 881
4.88 880
4.9 921
4.92 856
4.94 877
4.96 916
4.98 898
5 876
5.02 879
5.04 880
5.06 891
5.08 916
5.1 903
5.12 884
5.14 855
5.16 810
5.18 860
5.2 865
5.22 840
5.24 895
5.26 825
5.28 858
5.3 859
5.32 950
5.34 914
5.36 869
5.38 941
5.4 961
5.42 971
5.44 930
5.46 942
5.48 879
5.5 883
5.52 819
5.54 809
5.56 813
5.58 827
5.6 857
5.62 810
5.64 821
5.66 802
5.68 818
5.7 869
5.72 845
5.74 871
5.76 842
5.78 806
5.8 811
5.82 836
5.84 772
5.86 737
5.88 746
5.9 781
5.92 680
5.94 703
5.96 670
5.98 671
6 710
6.02 677
6.04 628
6.06 695
6.08 693
6.1 648
6.12 670
6.14 711
6.16 702
6.18 700
6.2 647
6.22 706
6.24 663
6.26 618
6.28 642
6.3 622
6.32 646
6.34 611
6.36 661
6.38 608
6.4 658
6.42 623
6.44 639
6.46 659
6.48 641
6.5 614
6.52 601
6.54 607
6.56 643
6.58 591
6.6 631
6.62 583
6.64 625
6.66 634
6.68 590
6.7 579
6.72 646
6.74 613
6.76 617
6.78 629
6.8 594
6.82 622
6.84 623
6.86 608
6.88 616
6.9 611
6.92 577
6.94 583
6.96 598
6.98 587
7 559
7.02 590
7.04 611
7.06 600
7.08 604
7.1 604
7.12 589
7.14 601
7.16 620
7.18 565
7.2 614
7.22 624
7.24 588
7.26 615
7.28 555
7.3 597
7.32 565
7.34 582
7.36 614
7.38 572
7.4 612
7.42 600
7.44 586
7.46 607
7.48 570
7.5 591
7.52 605
7.54 581
7.56 592
7.58 608
7.6 597
7.62 578
7.64 583
7.66 559
7.68 594
7.7 605
7.72 585
7.74 585
7.76 515
7.78 562
7.8 563
7.82 569
7.84 584
7.86 586
7.88 614
7.9 605
7.92 550
7.94 574
7.96 597
7.98 594
8 563
8.02 588
8.04 546
8.06 577
8.08 606
8.1 590
8.12 534
8.14 548
8.16 571
8.18 599
8.2 597
8.22 535
8.24 578
8.26 585
8.28 557
8.3 592
8.32 546
8.34 564
8.36 550
8.38 520
8.4 541
8.42 581
8.44 577
8.46 608
8.48 560
8.5 556
8.52 544
8.54 570
8.56 543
8.58 540
8.6 560
8.62 549
8.64 550
8.66 561
8.68 520
8.7 579
8.72 605
8.74 573
8.76 574
8.78 569
8.8 583
8.82 540
8.84 591
8.86 595
8.88 560
8.9 565
8.92 602
8.94 597
8.96 565
8.98 544
9 557
9.02 587
9.04 559
9.06 530
9.08 521
9.1 552
9.12 557
9.14 535
9.16 581
9.18 641
9.2 560
9.22 585
9.24 546
9.26 560
9.28 523
9.3 592
9.32 572
9.34 605
9.36 635
9.38 586
9.4 551
9.42 534
9.44 507
9.46 528
9.48 536
9.5 558
9.52 537
9.54 590
9.56 569
9.58 544
9.6 527
9.62 528
9.64 583
9.66 557
9.68 512
9.7 582
9.72 557
9.74 534
9.76 508
9.78 573
9.8 515
9.82 516
9.84 530
9.86 568
9.88 545
9.9 549
9.92 556
9.94 530
9.96 558
9.98 565
10 526
10.02 539
10.04 519
10.06 532
10.08 546
10.1 557
10.12 534
10.14 508
10.16 522
10.18 553
10.2 575
10.22 558
10.24 521
10.26 539
10.28 542
10.3 574
10.32 506
10.34 519
10.36 522
10.38 528
10.4 570
10.42 499
10.44 493
10.46 522
10.48 532
10.5 521
10.52 534
10.54 520
10.56 558
10.58 555
10.6 543
10.62 522
10.64 494
10.66 517
10.68 584
10.7 529
10.72 500
10.74 484
10.76 527
10.78 597
10.8 573
10.82 560
10.84 586
10.86 536
10.88 509
10.9 574
10.92 536
10.94 529
10.96 574
10.98 553
11 526
11.02 532
11.04 510
11.06 549
11.08 513
11.1 532
11.12 510
11.14 493
11.16 499
11.18 496
11.2 537
11.22 515
11.24 530
11.26 510
11.28 500
11.3 493
11.32 492
11.34 495
11.36 545
11.38 517
11.4 546
11.42 477
11.44 508
11.46 516
11.48 559
11.5 520
11.52 521
11.54 503
11.56 537
11.58 506
11.6 522
11.62 530
11.64 494
11.66 541
11.68 503
11.7 513
11.72 508
11.74 504
11.76 503
11.78 494
11.8 525
11.82 532
11.84 502
11.86 558
11.88 532
11.9 534
11.92 535
11.94 540
11.96 559
11.98 535
12 487
12.02 541
12.04 498
12.06 565
12.08 487
12.1 520
12.12 518
12.14 484
12.16 528
12.18 534
12.2 551
12.22 519
12.24 508
12.26 553
12.28 524
12.3 520
12.32 556
12.34 524
12.36 531
12.38 515
12.4 529
12.42 554
12.44 517
12.46 526
12.48 562
12.5 519
12.52 541
12.54 531
12.56 532
12.58 534
12.6 580
12.62 523
12.64 558
12.66 510
12.68 554
12.7 498
12.72 541
12.74 531
12.76 546
12.78 527
12.8 533
12.82 502
12.84 497
12.86 518
12.88 553
12.9 556
12.92 568
12.94 505
12.96 542
12.98 521
13 496
13.02 535
13.04 504
13.06 484
13.08 543
13.1 544
13.12 576
13.14 523
13.16 514
13.18 491
13.2 557
13.22 552
13.24 546
13.26 533
13.28 549
13.3 531
13.32 506
13.34 598
13.36 552
13.38 552
13.4 547
13.42 565
13.44 537
13.46 521
13.48 502
13.5 575
13.52 516
13.54 556
13.56 566
13.58 539
13.6 561
13.62 518
13.64 541
13.66 538
13.68 502
13.7 560
13.72 506
13.74 505
13.76 541
13.78 563
13.8 564
13.82 563
13.84 561
13.86 572
13.88 540
13.9 552
13.92 549
13.94 568
13.96 566
13.98 560
14 548
14.02 582
14.04 528
14.06 586
14.08 543
14.1 566
14.12 584
14.14 567
14.16 579
14.18 569
14.2 561
14.22 596
14.24 555
14.26 554
14.28 589
14.3 601
14.32 582
14.34 612
14.36 599
14.38 592
14.4 588
14.42 589
14.44 522
14.46 551
14.48 548
14.5 557
14.52 535
14.54 581
14.56 587
14.58 552
14.6 579
14.62 604
14.64 601
14.66 608
14.68 577
14.7 584
14.72 617
14.74 611
14.76 605
14.78 593
14.8 606
14.82 599
14.84 578
14.86 583
14.88 588
14.9 573
14.92 579
14.94 608
14.96 568
14.98 590
15 603
15.02 611
15.04 564
15.06 613
15.08 589
15.1 595
15.12 600
15.14 601
15.16 621
15.18 590
15.2 573
15.22 600
15.24 584
15.26 632
15.28 615
15.3 595
15.32 570
15.34 667
15.36 596
15.38 622
15.4 577
15.42 632
15.44 592
15.46 671
15.48 599
15.5 598
15.52 634
15.54 645
15.56 650
15.58 647
15.6 573
15.62 640
15.64 641
15.66 645
15.68 653
15.7 641
15.72 650
15.74 668
15.76 659
15.78 636
15.8 628
15.82 632
15.84 631
15.86 655
15.88 649
15.9 638
15.92 636
15.94 638
15.96 653
15.98 651
16 634
16.02 680
16.04 629
16.06 629
16.08 651
16.1 651
16.12 657
16.14 639
16.16 643
16.18 652
16.2 650
16.22 713
16.24 659
16.26 688
16.28 632
16.3 670
16.32 698
16.34 714
16.36 674
16.38 683
16.4 697
16.42 687
16.44 672
16.46 743
16.48 728
16.5 683
16.52 684
16.54 706
16.56 725
16.58 685
16.6 746
16.62 689
16.64 707
16.66 727
16.68 704
16.7 747
16.72 750
16.74 766
16.76 737
16.78 792
16.8 723
16.82 769
16.84 767
16.86 850
16.88 893
16.9 859
16.92 897
16.94 993
16.96 1027
16.98 1051
17 1278
17.02 1197
17.04 1287
17.06 1288
17.08 1045
17.1 959
17.12 851
17.14 770
17.16 783
17.18 818
17.2 735
17.22 745
17.24 765
17.26 726
17.28 792
17.3 757
17.32 744
17.34 743
17.36 744
17.38 766
17.4 755
17.42 758
17.44 747
17.46 810
17.48 771
17.5 759
17.52 784
17.54 746
17.56 756
17.58 769
17.6 784
17.62 775
17.64 819
17.66 835
17.68 756
17.7 829
17.72 799
17.74 805
17.76 809
17.78 867
17.8 804
17.82 831
17.84 805
17.86 787
17.88 820
17.9 831
17.92 813
17.94 830
17.96 825
17.98 807
18 843
18.02 821
18.04 801
18.06 824
18.08 815
18.1 794
18.12 805
18.14 783
18.16 838
18.18 837
18.2 857
18.22 850
18.24 806
18.26 795
18.28 844
18.3 837
18.32 865
18.34 872
18.36 846
18.38 853
18.4 841
18.42 800
18.44 886
18.46 865
18.48 906
18.5 839
18.52 848
18.54 860
18.56 950
18.58 897
18.6 879
18.62 836
18.64 896
18.66 938
18.68 846
18.7 916
18.72 848
18.74 902
18.76 891
18.78 937
18.8 906
18.82 902
18.84 922
18.86 893
18.88 893
18.9 882
18.92 913
18.94 884
18.96 913
18.98 938
19 868
19.02 917
19.04 904
19.06 932
19.08 981
19.1 956
19.12 1004
19.14 959
19.16 1013
19.18 975
19.2 924
19.22 979
19.24 940
19.26 910
19.28 988
19.3 972
19.32 961
19.34 938
19.36 962
19.38 911
19.4 988
19.42 980
19.44 933
19.46 988
19.48 899
19.5 926
19.52 1005
19.54 982
19.56 1025
19.58 1009
19.6 1000
19.62 1019
19.64 985
19.66 953
19.68 942
19.7 1059
19.72 986
19.74 962
19.76 999
19.78 1022
19.8 1005
19.82 1022
19.84 1015
19.86 1068
19.88 1000
19.9 1002
19.92 979
19.94 1017
19.96 1024
19.98 1076
20 973
20.02 1000
20.04 1057
20.06 1034
20.08 999
20.1 1077
20.12 1037
20.14 1015
20.16 1007
20.18 1069
20.2 1030
20.22 1060
20.24 1048
20.26 985
20.28 1062
20.3 1034
20.32 1036
20.34 1065
20.36 1113
20.38 1072
20.4 1071
20.42 1050
20.44 1065
20.46 1062
20.48 1098
20.5 1036
20.52 1038
20.54 996
20.56 1086
20.58 1089
20.6 1098
20.62 1049
20.64 1040
20.66 1041
20.68 1057
20.7 1103
20.72 1082
20.74 1055
20.76 1082
20.78 1082
20.8 1097
20.82 1154
20.84 1126
20.86 1129
20.88 1110
20.9 1086
20.92 1010
20.94 1100
20.96 1067
20.98 1076
21 1053
21.02 1104
21.04 1116
21.06 1145
21.08 1118
21.1 1119
21.12 1077
21.14 1079
21.16 1151
21.18 1092
21.2 1138
21.22 1068
21.24 1115
21.26 1099
21.28 1090
21.3 1046
21.32 1091
21.34 1124
21.36 1079
21.38 1083
21.4 1069
21.42 1109
21.44 1057
21.46 1112
21.48 1106
21.5 1093
21.52 1139
21.54 1125
21.56 1138
21.58 1131
21.6 1153
21.62 1173
21.64 1081
21.66 1112
21.68 1188
21.7 1096
21.72 1156
21.74 1131
21.76 1179
21.78 1150
21.8 1121
21.82 1078
21.84 1097
21.86 1115
21.88 1127
21.9 1130
21.92 1152
21.94 1190
21.96 1082
21.98 1178
22 1171
22.02 1143
22.04 1129
22.06 1101
22.08 1112
22.1 1153
22.12 1066
22.14 1167
22.16 1095
22.18 1163
22.2 1139
22.22 1065
22.24 1043
22.26 1150
22.28 1108
22.3 1086
22.32 1162
22.34 1104
22.36 1162
22.38 1172
22.4 1124
22.42 1184
22.44 1106
22.46 1110
22.48 1172
22.5 1148
22.52 1082
22.54 1111
22.56 1142
22.58 1163
22.6 1170
22.62 1118
22.64 1177
22.66 1138
22.68 1168
22.7 1105
22.72 1115
22.74 1148
22.76 1123
22.78 1150
22.8 1148
22.82 1185
22.84 1105
22.86 1098
22.88 1139
22.9 1185
22.92 1158
22.94 1100
22.96 1091
22.98 1153
23 1195
23.02 1146
23.04 1152
23.06 1079
23.08 1150
23.1 1134
23.12 1103
23.14 1160
23.16 1163
23.18 1178
23.2 1114
23.22 1194
23.24 1139
23.26 1096
23.28 1152
23.3 1161
23.32 1152
23.34 1082
23.36 1157
23.38 1143
23.4 1106
23.42 1186
23.44 1145
23.46 1124
23.48 1101
23.5 1115
23.52 1141
23.54 1156
23.56 1152
23.58 1101
23.6 1129
23.62 1151
23.64 1148
23.66 1158
23.68 1192
23.7 1118
23.72 1068
23.74 1087
23.76 1048
23.78 1124
23.8 1147
23.82 1117
23.84 1163
23.86 1130
23.88 1166
23.9 1151
23.92 1089
23.94 1127
23.96 1166
23.98 1126
24 1149
24.02 1123
24.04 1094
24.06 1091
24.08 1136
24.1 1152
24.12 1135
24.14 1116
24.16 1093
24.18 1175
24.2 1155
24.22 1119
24.24 1109
24.26 1155
24.28 1120
24.3 1084
24.32 1119
24.34 1181
24.36 1112
24.38 1059
24.4 1123
24.42 1116
24.44 1100
24.46 1088
24.48 1105
24.5 1145
24.52 1125
24.54 1089
24.56 1119
24.58 1125
24.6 1113
24.62 1097
24.64 1131
24.66 1122
24.68 1052
24.7 1105
24.72 1136
24.74 1135
24.76 1101
24.78 1042
24.8 1131
24.82 1125
24.84 1111
24.86 1056
24.88 1058
24.9 1184
24.92 1118
24.94 1092
24.96 1106
24.98 1072
25 1089
25.02 1103
25.04 1100
25.06 1055
25.08 1096
25.1 1068
25.12 1111
25.14 1066
25.16 1126
25.18 1146
25.2 1071
25.22 1106
25.24 1095
25.26 1125
25.28 1121
25.3 1158
25.32 1192
25.34 1131
25.36 1083
25.38 1095
25.4 1129
25.42 1123
25.44 1162
25.46 1088
25.48 1061
25.5 1057
25.52 1078
25.54 1068
25.56 995
25.58 1047
25.6 1071
25.62 1094
25.64 1085
25.66 1093
25.68 1102
25.7 1064
25.72 1094
25.74 1058
25.76 1034
25.78 991
25.8 1085
25.82 1105
25.84 1033
25.86 1091
25.88 1060
25.9 1056
25.92 1049
25.94 1088
25.96 1048
25.98 1056
26 1061
26.02 1058
26.04 1043
26.06 1054
26.08 1023
26.1 1029
26.12 1070
26.14 1037
26.16 1058
26.18 1058
26.2 1041
26.22 1043
26.24 1033
26.26 1033
26.28 1036
26.3 1050
26.32 1022
26.34 1102
26.36 1031
26.38 1036
26.4 1025
26.42 1025
26.44 987
26.46 1035
26.48 1060
26.5 1037
26.52 1029
26.54 1040
26.56 1034
26.58 978
26.6 1009
26.62 1045
26.64 1007
26.66 1059
26.68 1041
26.7 992
26.72 1046
26.74 1027
26.76 1053
26.78 1028
26.8 1057
26.82 1117
26.84 1056
26.86 1049
26.88 1104
26.9 1086
26.92 1043
26.94 1107
26.96 1103
26.98 1053
27 1040
27.02 1041
27.04 1022
27.06 1002
27.08 1025
27.1 1040
27.12 1029
27.14 1012
27.16 1053
27.18 974
27.2 1000
27.22 1003
27.24 946
27.26 997
27.28 989
27.3 1003
27.32 1003
27.34 1048
27.36 969
27.38 1039
27.4 1009
27.42 1019
27.44 992
27.46 996
27.48 1032
27.5 1045
27.52 976
27.54 1002
27.56 1006
27.58 947
27.6 997
27.62 956
27.64 921
27.66 1002
27.68 946
27.7 934
27.72 967
27.74 998
27.76 1009
27.78 999
27.8 1003
27.82 939
27.84 987
27.86 953
27.88 1005
27.9 989
27.92 979
27.94 1007
27.96 968
27.98 970
28 953
28.02 971
28.04 1016
28.06 939
28.08 980
28.1 980
28.12 991
28.14 975
28.16 1027
28.18 1013
28.2 1047
28.22 981
28.24 1015
28.26 978
28.28 1041
28.3 973
28.32 940
28.34 980
28.36 1003
28.38 1017
28.4 926
28.42 980
28.44 912
28.46 934
28.48 965
28.5 910
28.52 936
28.54 1004
28.56 958
28.58 971
28.6 946
28.62 928
28.64 914
28.66 920
28.68 895
28.7 985
28.72 974
28.74 964
28.76 946
28.78 945
28.8 944
28.82 940
28.84 995
28.86 933
28.88 901
28.9 844
28.92 951
28.94 932
28.96 965
28.98 941
29 939
29.02 925
29.04 903
29.06 992
29.08 938
29.1 925
29.12 934
29.14 939
29.16 925
29.18 913
29.2 986
29.22 890
29.24 971
29.26 930
29.28 889
29.3 931
29.32 932
29.34 939
29.36 894
29.38 910
29.4 955
29.42 979
29.44 917
29.46 921
29.48 897
29.5 943
29.52 938
29.54 854
29.56 896
29.58 898
29.6 887
29.62 928
29.64 903
29.66 931
29.68 906
29.7 831
29.72 899
29.74 899
29.76 898
29.78 911
29.8 905
29.82 943
29.84 871
29.86 879
29.88 903
29.9 904
29.92 889
29.94 906
29.96 919
29.98 915
30 951