File: xrd-UiO-67/pxrddata/35-20.ASC
3 4281
3.02 4224
3.04 4116
3.06 4037
3.08 3741
3.1 3402
3.12 3089
3.14 3031
3.16 3023
3.18 2937
3.2 2876
3.22 2723
3.24 2479
3.26 2421
3.28 2317
3.3 2357
3.32 2362
3.34 2454
3.36 2453
3.38 2420
3.4 2388
3.42 2261
3.44 2279
3.46 2084
3.48 2072
3.5 1985
3.52 2034
3.54 2019
3.56 1851
3.58 1866
3.6 1893
3.62 1879
3.64 1914
3.66 1835
3.68 1858
3.7 1862
3.72 1761
3.74 1754
3.76 1741
3.78 1715
3.8 1694
3.82 1634
3.84 1732
3.86 1793
3.88 1688
3.9 1671
3.92 1683
3.94 1757
3.96 1696
3.98 1733
4 1705
4.02 1650
4.04 1682
4.06 1714
4.08 1670
4.1 1665
4.12 1717
4.14 1763
4.16 1760
4.18 1713
4.2 1740
4.22 1802
4.24 1702
4.26 1694
4.28 1712
4.3 1664
4.32 1725
4.34 1706
4.36 1649
4.38 1713
4.4 1662
4.42 1619
4.44 1679
4.46 1648
4.48 1707
4.5 1663
4.52 1641
4.54 1565
4.56 1640
4.58 1592
4.6 1524
4.62 1501
4.64 1598
4.66 1609
4.68 1591
4.7 1508
4.72 1553
4.74 1594
4.76 1605
4.78 1597
4.8 1553
4.82 1655
4.84 1647
4.86 1677
4.88 1560
4.9 1577
4.92 1587
4.94 1656
4.96 1556
4.98 1556
5 1601
5.02 1676
5.04 1653
5.06 1643
5.08 1651
5.1 1653
5.12 1721
5.14 1630
5.16 1727
5.18 1666
5.2 1781
5.22 1835
5.24 1768
5.26 1799
5.28 1855
5.3 1946
5.32 1899
5.34 2057
5.36 2091
5.38 2249
5.4 2334
5.42 2498
5.44 2592
5.46 2490
5.48 2266
5.5 2051
5.52 1948
5.54 1791
5.56 1827
5.58 1871
5.6 1835
5.62 1846
5.64 1851
5.66 1993
5.68 2012
5.7 1993
5.72 2094
5.74 2171
5.76 2179
5.78 2256
5.8 2321
5.82 2114
5.84 1944
5.86 1699
5.88 1552
5.9 1443
5.92 1345
5.94 1294
5.96 1259
5.98 1218
6 1163
6.02 1175
6.04 1144
6.06 1157
6.08 1081
6.1 1177
6.12 1093
6.14 1122
6.16 1133
6.18 1105
6.2 1085
6.22 1108
6.24 1060
6.26 1033
6.28 1036
6.3 1086
6.32 1034
6.34 1076
6.36 1024
6.38 1082
6.4 981
6.42 1040
6.44 1022
6.46 1036
6.48 1018
6.5 1043
6.52 1040
6.54 1001
6.56 1011
6.58 1003
6.6 974
6.62 1027
6.64 1038
6.66 1037
6.68 1074
6.7 1071
6.72 1021
6.74 940
6.76 1011
6.78 1046
6.8 967
6.82 985
6.84 991
6.86 1015
6.88 968
6.9 916
6.92 967
6.94 957
6.96 942
6.98 914
7 897
7.02 921
7.04 864
7.06 857
7.08 890
7.1 921
7.12 902
7.14 946
7.16 880
7.18 876
7.2 901
7.22 883
7.24 908
7.26 870
7.28 889
7.3 907
7.32 909
7.34 895
7.36 918
7.38 848
7.4 877
7.42 894
7.44 931
7.46 936
7.48 883
7.5 870
7.52 873
7.54 839
7.56 903
7.58 835
7.6 842
7.62 818
7.64 861
7.66 896
7.68 888
7.7 818
7.72 854
7.74 888
7.76 869
7.78 875
7.8 864
7.82 891
7.84 932
7.86 890
7.88 868
7.9 862
7.92 876
7.94 827
7.96 853
7.98 862
8 889
8.02 861
8.04 856
8.06 873
8.08 829
8.1 841
8.12 816
8.14 876
8.16 882
8.18 845
8.2 866
8.22 921
8.24 866
8.26 863
8.28 839
8.3 834
8.32 866
8.34 890
8.36 883
8.38 838
8.4 871
8.42 906
8.44 871
8.46 900
8.48 838
8.5 838
8.52 790
8.54 846
8.56 842
8.58 842
8.6 824
8.62 909
8.64 911
8.66 858
8.68 857
8.7 862
8.72 876
8.74 886
8.76 800
8.78 823
8.8 860
8.82 784
8.84 840
8.86 900
8.88 856
8.9 910
8.92 881
8.94 868
8.96 892
8.98 942
9 861
9.02 926
9.04 898
9.06 930
9.08 897
9.1 966
9.12 932
9.14 994
9.16 943
9.18 1019
9.2 995
9.22 1053
9.24 1148
9.26 1116
9.28 1162
9.3 1224
9.32 1328
9.34 1460
9.36 1442
9.38 1420
9.4 1209
9.42 1049
9.44 1003
9.46 911
9.48 917
9.5 883
9.52 872
9.54 864
9.56 840
9.58 827
9.6 830
9.62 870
9.64 812
9.66 865
9.68 860
9.7 864
9.72 857
9.74 897
9.76 874
9.78 885
9.8 871
9.82 859
9.84 919
9.86 882
9.88 805
9.9 857
9.92 876
9.94 817
9.96 884
9.98 828
10 859
10.02 907
10.04 867
10.06 885
10.08 877
10.1 853
10.12 880
10.14 951
10.16 929
10.18 923
10.2 920
10.22 938
10.24 955
10.26 909
10.28 906
10.3 871
10.32 877
10.34 813
10.36 885
10.38 824
10.4 765
10.42 864
10.44 808
10.46 891
10.48 900
10.5 876
10.52 871
10.54 822
10.56 866
10.58 831
10.6 886
10.62 934
10.64 866
10.66 848
10.68 936
10.7 957
10.72 909
10.74 961
10.76 1039
10.78 1063
10.8 1056
10.82 1007
10.84 1033
10.86 1024
10.88 989
10.9 1020
10.92 1052
10.94 1027
10.96 1039
10.98 1058
11 1046
11.02 974
11.04 934
11.06 908
11.08 838
11.1 863
11.12 825
11.14 858
11.16 831
11.18 836
11.2 844
11.22 843
11.24 827
11.26 846
11.28 834
11.3 871
11.32 824
11.34 834
11.36 894
11.38 859
11.4 877
11.42 891
11.44 860
11.46 851
11.48 833
11.5 951
11.52 938
11.54 889
11.56 877
11.58 859
11.6 908
11.62 884
11.64 849
11.66 869
11.68 854
11.7 854
11.72 858
11.74 869
11.76 822
11.78 826
11.8 824
11.82 862
11.84 865
11.86 867
11.88 829
11.9 869
11.92 822
11.94 840
11.96 889
11.98 866
12 854
12.02 860
12.04 912
12.06 898
12.08 868
12.1 820
12.12 845
12.14 892
12.16 884
12.18 855
12.2 932
12.22 888
12.24 900
12.26 874
12.28 863
12.3 931
12.32 894
12.34 877
12.36 883
12.38 892
12.4 852
12.42 922
12.44 912
12.46 872
12.48 906
12.5 905
12.52 850
12.54 876
12.56 881
12.58 887
12.6 852
12.62 912
12.64 894
12.66 894
12.68 911
12.7 900
12.72 846
12.74 850
12.76 873
12.78 927
12.8 934
12.82 841
12.84 873
12.86 930
12.88 846
12.9 927
12.92 913
12.94 870
12.96 875
12.98 938
13 956
13.02 857
13.04 1004
13.06 915
13.08 914
13.1 932
13.12 917
13.14 853
13.16 906
13.18 892
13.2 958
13.22 942
13.24 936
13.26 944
13.28 967
13.3 959
13.32 909
13.34 925
13.36 973
13.38 935
13.4 960
13.42 1023
13.44 1014
13.46 980
13.48 912
13.5 906
13.52 952
13.54 906
13.56 957
13.58 955
13.6 1007
13.62 970
13.64 958
13.66 964
13.68 957
13.7 956
13.72 954
13.74 1024
13.76 949
13.78 960
13.8 982
13.82 996
13.84 954
13.86 953
13.88 962
13.9 1017
13.92 957
13.94 977
13.96 979
13.98 1013
14 1000
14.02 985
14.04 1017
14.06 997
14.08 998
14.1 1007
14.12 1070
14.14 967
14.16 991
14.18 1045
14.2 1013
14.22 1047
14.24 1055
14.26 1064
14.28 1042
14.3 1056
14.32 1045
14.34 1068
14.36 1044
14.38 1084
14.4 1087
14.42 1050
14.44 1062
14.46 1100
14.48 1081
14.5 1053
14.52 1062
14.54 1000
14.56 1101
14.58 1045
14.6 1055
14.62 1038
14.64 983
14.66 1040
14.68 999
14.7 1115
14.72 1052
14.74 1048
14.76 1092
14.78 1099
14.8 1060
14.82 1125
14.84 1125
14.86 1167
14.88 1101
14.9 1091
14.92 1105
14.94 1112
14.96 1110
14.98 1106
15 1076
15.02 1230
15.04 1170
15.06 1120
15.08 1069
15.1 1155
15.12 1173
15.14 1110
15.16 1137
15.18 1124
15.2 1166
15.22 1137
15.24 1164
15.26 1179
15.28 1126
15.3 1181
15.32 1172
15.34 1191
15.36 1172
15.38 1179
15.4 1127
15.42 1132
15.44 1211
15.46 1194
15.48 1181
15.5 1140
15.52 1191
15.54 1124
15.56 1205
15.58 1154
15.6 1230
15.62 1210
15.64 1179
15.66 1311
15.68 1182
15.7 1261
15.72 1183
15.74 1277
15.76 1248
15.78 1254
15.8 1147
15.82 1225
15.84 1229
15.86 1191
15.88 1257
15.9 1274
15.92 1218
15.94 1303
15.96 1273
15.98 1326
16 1237
16.02 1278
16.04 1261
16.06 1258
16.08 1325
16.1 1304
16.12 1264
16.14 1269
16.16 1263
16.18 1343
16.2 1346
16.22 1342
16.24 1323
16.26 1337
16.28 1366
16.3 1342
16.32 1279
16.34 1327
16.36 1310
16.38 1338
16.4 1370
16.42 1355
16.44 1388
16.46 1444
16.48 1375
16.5 1371
16.52 1318
16.54 1404
16.56 1421
16.58 1376
16.6 1443
16.62 1451
16.64 1390
16.66 1398
16.68 1455
16.7 1442
16.72 1419
16.74 1470
16.76 1485
16.78 1531
16.8 1506
16.82 1539
16.84 1614
16.86 1637
16.88 1712
16.9 1688
16.92 1875
16.94 2003
16.96 2165
16.98 2303
17 2176
17.02 1976
17.04 1834
17.06 1746
17.08 1638
17.1 1547
17.12 1514
17.14 1563
17.16 1561
17.18 1509
17.2 1549
17.22 1498
17.24 1526
17.26 1584
17.28 1639
17.3 1560
17.32 1610
17.34 1592
17.36 1632
17.38 1621
17.4 1607
17.42 1660
17.44 1616
17.46 1520
17.48 1579
17.5 1612
17.52 1704
17.54 1564
17.56 1577
17.58 1664
17.6 1699
17.62 1632
17.64 1662
17.66 1613
17.68 1645
17.7 1693
17.72 1708
17.74 1682
17.76 1675
17.78 1676
17.8 1665
17.82 1644
17.84 1610
17.86 1623
17.88 1709
17.9 1704
17.92 1688
17.94 1667
17.96 1701
17.98 1694
18 1723
18.02 1778
18.04 1699
18.06 1649
18.08 1694
18.1 1694
18.12 1747
18.14 1728
18.16 1678
18.18 1739
18.2 1715
18.22 1729
18.24 1856
18.26 1762
18.28 1708
18.3 1793
18.32 1787
18.34 1776
18.36 1824
18.38 1747
18.4 1801
18.42 1859
18.44 1788
18.46 1791
18.48 1809
18.5 1803
18.52 1916
18.54 1833
18.56 1867
18.58 1786
18.6 1901
18.62 1892
18.64 1811
18.66 1946
18.68 1823
18.7 1950
18.72 1886
18.74 1901
18.76 1892
18.78 1905
18.8 1929
18.82 1819
18.84 1878
18.86 1962
18.88 1963
18.9 1992
18.92 1942
18.94 2023
18.96 1938
18.98 1964
19 2101
19.02 2017
19.04 1984
19.06 1954
19.08 2059
19.1 2104
19.12 2024
19.14 1979
19.16 2043
19.18 2076
19.2 2012
19.22 2067
19.24 1982
19.26 2049
19.28 2110
19.3 2028
19.32 2108
19.34 2134
19.36 2112
19.38 2016
19.4 2053
19.42 2167
19.44 2121
19.46 2182
19.48 2153
19.5 2222
19.52 2235
19.54 2196
19.56 2102
19.58 2140
19.6 2126
19.62 2123
19.64 2123
19.66 2134
19.68 2107
19.7 2119
19.72 2090
19.74 2044
19.76 2153
19.78 2079
19.8 2221
19.82 2114
19.84 2172
19.86 2111
19.88 2136
19.9 2189
19.92 2146
19.94 2217
19.96 2171
19.98 2192
20 2170