File: xrd-UiO-67/pxrddata/35-21.ASC
3 2262
3.02 2067
3.04 1963
3.06 1856
3.08 1796
3.1 1755
3.12 1805
3.14 1699
3.16 1606
3.18 1590
3.2 1610
3.22 1546
3.24 1585
3.26 1584
3.28 1624
3.3 1527
3.32 1511
3.34 1545
3.36 1451
3.38 1496
3.4 1509
3.42 1502
3.44 1523
3.46 1435
3.48 1374
3.5 1435
3.52 1428
3.54 1354
3.56 1472
3.58 1544
3.6 1455
3.62 1397
3.64 1443
3.66 1411
3.68 1404
3.7 1430
3.72 1431
3.74 1432
3.76 1445
3.78 1415
3.8 1395
3.82 1391
3.84 1459
3.86 1371
3.88 1421
3.9 1474
3.92 1416
3.94 1418
3.96 1456
3.98 1533
4 1396
4.02 1494
4.04 1416
4.06 1424
4.08 1536
4.1 1488
4.12 1474
4.14 1626
4.16 1625
4.18 1545
4.2 1530
4.22 1540
4.24 1475
4.26 1530
4.28 1522
4.3 1473
4.32 1420
4.34 1468
4.36 1506
4.38 1625
4.4 1521
4.42 1512
4.44 1532
4.46 1563
4.48 1546
4.5 1509
4.52 1484
4.54 1547
4.56 1555
4.58 1580
4.6 1539
4.62 1561
4.64 1544
4.66 1559
4.68 1591
4.7 1639
4.72 1643
4.74 1619
4.76 1679
4.78 1593
4.8 1619
4.82 1628
4.84 1611
4.86 1611
4.88 1637
4.9 1629
4.92 1649
4.94 1602
4.96 1667
4.98 1699
5 1655
5.02 1674
5.04 1643
5.06 1578
5.08 1655
5.1 1632
5.12 1648
5.14 1700
5.16 1727
5.18 1681
5.2 1680
5.22 1697
5.24 1711
5.26 1697
5.28 1637
5.3 1703
5.32 1776
5.34 1690
5.36 1744
5.38 1814
5.4 1786
5.42 1904
5.44 1920
5.46 2014
5.48 1982
5.5 1800
5.52 1672
5.54 1623
5.56 1662
5.58 1702
5.6 1667
5.62 1657
5.64 1729
5.66 1700
5.68 1718
5.7 1787
5.72 1846
5.74 1910
5.76 2019
5.78 2185
5.8 2441
5.82 2595
5.84 2422
5.86 1917
5.88 1494
5.9 1261
5.92 1183
5.94 1215
5.96 1222
5.98 1139
6 1204
6.02 1094
6.04 1139
6.06 1070
6.08 1127
6.1 1109
6.12 1075
6.14 1057
6.16 1109
6.18 1128
6.2 1041
6.22 1049
6.24 1027
6.26 1007
6.28 1002
6.3 998
6.32 972
6.34 970
6.36 1009
6.38 945
6.4 968
6.42 978
6.44 985
6.46 977
6.48 914
6.5 945
6.52 957
6.54 964
6.56 918
6.58 972
6.6 973
6.62 982
6.64 1006
6.66 1086
6.68 1079
6.7 1035
6.72 1018
6.74 892
6.76 949
6.78 899
6.8 967
6.82 943
6.84 936
6.86 915
6.88 878
6.9 814
6.92 879
6.94 846
6.96 813
6.98 796
7 796
7.02 816
7.04 831
7.06 827
7.08 808
7.1 800
7.12 806
7.14 744
7.16 806
7.18 796
7.2 792
7.22 735
7.24 795
7.26 747
7.28 741
7.3 750
7.32 807
7.34 758
7.36 776
7.38 737
7.4 774
7.42 738
7.44 761
7.46 792
7.48 782
7.5 772
7.52 783
7.54 721
7.56 747
7.58 752
7.6 765
7.62 757
7.64 810
7.66 764
7.68 731
7.7 740
7.72 774
7.74 741
7.76 690
7.78 718
7.8 784
7.82 729
7.84 710
7.86 736
7.88 687
7.9 782
7.92 756
7.94 751
7.96 755
7.98 750
8 700
8.02 750
8.04 752
8.06 730
8.08 761
8.1 766
8.12 756
8.14 823
8.16 765
8.18 747
8.2 743
8.22 746
8.24 755
8.26 746
8.28 743
8.3 721
8.32 742
8.34 704
8.36 756
8.38 736
8.4 734
8.42 735
8.44 751
8.46 676
8.48 732
8.5 728
8.52 754
8.54 708
8.56 750
8.58 698
8.6 812
8.62 749
8.64 705
8.66 732
8.68 681
8.7 694
8.72 745
8.74 748
8.76 764
8.78 746
8.8 691
8.82 726
8.84 722
8.86 703
8.88 721
8.9 721
8.92 737
8.94 703
8.96 789
8.98 762
9 796
9.02 758
9.04 723
9.06 708
9.08 774
9.1 776
9.12 811
9.14 806
9.16 784
9.18 804
9.2 814
9.22 792
9.24 848
9.26 859
9.28 858
9.3 877
9.32 920
9.34 1075
9.36 1110
9.38 1284
9.4 1215
9.42 974
9.44 905
9.46 801
9.48 768
9.5 760
9.52 739
9.54 800
9.56 739
9.58 720
9.6 743
9.62 709
9.64 692
9.66 775
9.68 741
9.7 719
9.72 714
9.74 721
9.76 745
9.78 773
9.8 749
9.82 711
9.84 687
9.86 765
9.88 718
9.9 688
9.92 721
9.94 735
9.96 707
9.98 739
10 720
10.02 712
10.04 740
10.06 764
10.08 762
10.1 726
10.12 780
10.14 713
10.16 718
10.18 768
10.2 842
10.22 841
10.24 842
10.26 793
10.28 753
10.3 696
10.32 732
10.34 736
10.36 713
10.38 714
10.4 711
10.42 695
10.44 700
10.46 703
10.48 693
10.5 671
10.52 689
10.54 722
10.56 704
10.58 694
10.6 722
10.62 751
10.64 757
10.66 762
10.68 686
10.7 782
10.72 782
10.74 800
10.76 830
10.78 785
10.8 841
10.82 850
10.84 795
10.86 837
10.88 845
10.9 822
10.92 810
10.94 837
10.96 931
10.98 995
11 1045
11.02 1045
11.04 970
11.06 850
11.08 803
11.1 729
11.12 722
11.14 700
11.16 665
11.18 691
11.2 759
11.22 717
11.24 726
11.26 668
11.28 672
11.3 766
11.32 719
11.34 775
11.36 739
11.38 745
11.4 690
11.42 724
11.44 780
11.46 737
11.48 837
11.5 813
11.52 843
11.54 882
11.56 870
11.58 825
11.6 803
11.62 782
11.64 753
11.66 667
11.68 737
11.7 667
11.72 685
11.74 696
11.76 729
11.78 669
11.8 710
11.82 679
11.84 764
11.86 693
11.88 690
11.9 690
11.92 678
11.94 729
11.96 674
11.98 741
12 732
12.02 699
12.04 702
12.06 706
12.08 716
12.1 756
12.12 732
12.14 789
12.16 743
12.18 714
12.2 753
12.22 748
12.24 727
12.26 753
12.28 756
12.3 729
12.32 757
12.34 760
12.36 715
12.38 691
12.4 725
12.42 729
12.44 727
12.46 674
12.48 713
12.5 707
12.52 736
12.54 721
12.56 712
12.58 787
12.6 706
12.62 731
12.64 709
12.66 714
12.68 734
12.7 712
12.72 701
12.74 731
12.76 698
12.78 713
12.8 745
12.82 721
12.84 668
12.86 762
12.88 717
12.9 685
12.92 728
12.94 731
12.96 692
12.98 717
13 707
13.02 769
13.04 693
13.06 695
13.08 753
13.1 718
13.12 699
13.14 702
13.16 736
13.18 683
13.2 728
13.22 732
13.24 761
13.26 727
13.28 767
13.3 733
13.32 722
13.34 705
13.36 746
13.38 737
13.4 767
13.42 708
13.44 712
13.46 706
13.48 739
13.5 731
13.52 773
13.54 711
13.56 719
13.58 703
13.6 775
13.62 725
13.64 709
13.66 759
13.68 758
13.7 719
13.72 793
13.74 777
13.76 733
13.78 730
13.8 767
13.82 755
13.84 751
13.86 756
13.88 742
13.9 736
13.92 748
13.94 745
13.96 779
13.98 756
14 754
14.02 739
14.04 751
14.06 749
14.08 740
14.1 760
14.12 758
14.14 777
14.16 750
14.18 762
14.2 750
14.22 791
14.24 800
14.26 731
14.28 770
14.3 785
14.32 816
14.34 782
14.36 748
14.38 791
14.4 747
14.42 792
14.44 780
14.46 808
14.48 813
14.5 760
14.52 794
14.54 780
14.56 781
14.58 776
14.6 812
14.62 787
14.64 830
14.66 801
14.68 735
14.7 768
14.72 811
14.74 834
14.76 775
14.78 823
14.8 803
14.82 762
14.84 842
14.86 828
14.88 912
14.9 804
14.92 814
14.94 789
14.96 802
14.98 773
15 806
15.02 850
15.04 783
15.06 842
15.08 817
15.1 808
15.12 862
15.14 846
15.16 864
15.18 816
15.2 822
15.22 888
15.24 841
15.26 847
15.28 796
15.3 871
15.32 857
15.34 896
15.36 847
15.38 807
15.4 918
15.42 868
15.44 867
15.46 799
15.48 829
15.5 868
15.52 926
15.54 871
15.56 888
15.58 898
15.6 844
15.62 850
15.64 846
15.66 879
15.68 880
15.7 938
15.72 881
15.74 856
15.76 863
15.78 868
15.8 902
15.82 828
15.84 923
15.86 923
15.88 878
15.9 857
15.92 901
15.94 939
15.96 881
15.98 886
16 879
16.02 872
16.04 906
16.06 932
16.08 892
16.1 886
16.12 921
16.14 866
16.16 881
16.18 938
16.2 947
16.22 940
16.24 1009
16.26 880
16.28 943
16.3 960
16.32 971
16.34 986
16.36 935
16.38 960
16.4 973
16.42 968
16.44 966
16.46 1035
16.48 997
16.5 921
16.52 1015
16.54 910
16.56 954
16.58 909
16.6 979
16.62 988
16.64 1019
16.66 951
16.68 1030
16.7 1010
16.72 976
16.74 1024
16.76 973
16.78 943
16.8 985
16.82 1063
16.84 974
16.86 1038
16.88 1049
16.9 1020
16.92 1039
16.94 1024
16.96 1033
16.98 1118
17 1054
17.02 1030
17.04 1084
17.06 1060
17.08 1024
17.1 1053
17.12 1000
17.14 1054
17.16 1062
17.18 1145
17.2 1071
17.22 1099
17.24 1077
17.26 1083
17.28 1089
17.3 1127
17.32 1120
17.34 1075
17.36 1155
17.38 1110
17.4 1111
17.42 1079
17.44 1083
17.46 1140
17.48 1033
17.5 1125
17.52 1161
17.54 1174
17.56 1127
17.58 1066
17.6 1169
17.62 1098
17.64 1149
17.66 1118
17.68 1178
17.7 1158
17.72 1162
17.74 1189
17.76 1155
17.78 1173
17.8 1153
17.82 1189
17.84 1152
17.86 1172
17.88 1158
17.9 1194
17.92 1220
17.94 1194
17.96 1227
17.98 1264
18 1229
18.02 1249
18.04 1185
18.06 1182
18.08 1211
18.1 1221
18.12 1224
18.14 1218
18.16 1251
18.18 1208
18.2 1283
18.22 1202
18.24 1189
18.26 1254
18.28 1189
18.3 1212
18.32 1263
18.34 1223
18.36 1267
18.38 1189
18.4 1258
18.42 1244
18.44 1130
18.46 1229
18.48 1202
18.5 1311
18.52 1303
18.54 1241
18.56 1360
18.58 1248
18.6 1292
18.62 1284
18.64 1310
18.66 1344
18.68 1336
18.7 1304
18.72 1366
18.74 1291
18.76 1340
18.78 1318
18.8 1371
18.82 1378
18.84 1415
18.86 1400
18.88 1309
18.9 1324
18.92 1349
18.94 1337
18.96 1307
18.98 1362
19 1352
19.02 1401
19.04 1425
19.06 1405
19.08 1389
19.1 1459
19.12 1472
19.14 1549
19.16 1524
19.18 1525
19.2 1437
19.22 1427
19.24 1442
19.26 1459
19.28 1375
19.3 1359
19.32 1406
19.34 1449
19.36 1363
19.38 1392
19.4 1420
19.42 1446
19.44 1421
19.46 1432
19.48 1556
19.5 1492
19.52 1519
19.54 1566
19.56 1542
19.58 1540
19.6 1537
19.62 1553
19.64 1605
19.66 1523
19.68 1495
19.7 1445
19.72 1463
19.74 1427
19.76 1513
19.78 1485
19.8 1430
19.82 1474
19.84 1477
19.86 1536
19.88 1553
19.9 1572
19.92 1628
19.94 1648
19.96 1564
19.98 1506
20 1462