File: xrd-UiO-67/pxrddata/35-28.ASC
3 3087
3.02 2870
3.04 2651
3.06 2643
3.08 2474
3.1 2332
3.12 2406
3.14 2293
3.16 2291
3.18 2366
3.2 2211
3.22 2208
3.24 2152
3.26 2106
3.28 2194
3.3 2042
3.32 2080
3.34 2034
3.36 1915
3.38 2004
3.4 1983
3.42 2066
3.44 1898
3.46 1862
3.48 1913
3.5 1855
3.52 1815
3.54 1803
3.56 1734
3.58 1849
3.6 1822
3.62 1718
3.64 1678
3.66 1720
3.68 1711
3.7 1685
3.72 1651
3.74 1679
3.76 1583
3.78 1599
3.8 1628
3.82 1605
3.84 1572
3.86 1632
3.88 1553
3.9 1573
3.92 1554
3.94 1536
3.96 1564
3.98 1490
4 1499
4.02 1421
4.04 1462
4.06 1489
4.08 1425
4.1 1450
4.12 1407
4.14 1522
4.16 1422
4.18 1383
4.2 1418
4.22 1426
4.24 1381
4.26 1466
4.28 1480
4.3 1374
4.32 1390
4.34 1382
4.36 1349
4.38 1374
4.4 1331
4.42 1316
4.44 1355
4.46 1356
4.48 1384
4.5 1402
4.52 1322
4.54 1312
4.56 1296
4.58 1250
4.6 1277
4.62 1290
4.64 1279
4.66 1305
4.68 1209
4.7 1281
4.72 1337
4.74 1268
4.76 1245
4.78 1216
4.8 1193
4.82 1225
4.84 1281
4.86 1217
4.88 1253
4.9 1159
4.92 1241
4.94 1279
4.96 1215
4.98 1201
5 1215
5.02 1198
5.04 1174
5.06 1166
5.08 1175
5.1 1193
5.12 1099
5.14 1161
5.16 1125
5.18 1210
5.2 1136
5.22 1145
5.24 1158
5.26 1135
5.28 1121
5.3 1099
5.32 1082
5.34 1054
5.36 1093
5.38 1075
5.4 1111
5.42 1030
5.44 1081
5.46 1080
5.48 1048
5.5 1100
5.52 1032
5.54 1048
5.56 1080
5.58 1053
5.6 1075
5.62 1010
5.64 978
5.66 990
5.68 1027
5.7 972
5.72 916
5.74 956
5.76 963
5.78 996
5.8 898
5.82 885
5.84 949
5.86 912
5.88 913
5.9 863
5.92 912
5.94 887
5.96 898
5.98 885
6 870
6.02 852
6.04 905
6.06 893
6.08 897
6.1 886
6.12 894
6.14 808
6.16 901
6.18 858
6.2 853
6.22 910
6.24 870
6.26 871
6.28 789
6.3 867
6.32 836
6.34 841
6.36 835
6.38 786
6.4 811
6.42 825
6.44 825
6.46 790
6.48 791
6.5 784
6.52 817
6.54 816
6.56 821
6.58 762
6.6 803
6.62 842
6.64 806
6.66 795
6.68 788
6.7 766
6.72 785
6.74 798
6.76 751
6.78 774
6.8 792
6.82 770
6.84 788
6.86 729
6.88 802
6.9 763
6.92 757
6.94 776
6.96 832
6.98 775
7 795
7.02 790
7.04 758
7.06 746
7.08 738
7.1 721
7.12 762
7.14 698
7.16 735
7.18 727
7.2 749
7.22 732
7.24 687
7.26 756
7.28 723
7.3 707
7.32 767
7.34 758
7.36 738
7.38 740
7.4 729
7.42 726
7.44 757
7.46 701
7.48 714
7.5 725
7.52 736
7.54 702
7.56 718
7.58 673
7.6 737
7.62 754
7.64 735
7.66 713
7.68 686
7.7 743
7.72 735
7.74 698
7.76 737
7.78 734
7.8 695
7.82 726
7.84 710
7.86 693
7.88 701
7.9 708
7.92 672
7.94 723
7.96 649
7.98 720
8 730
8.02 698
8.04 674
8.06 677
8.08 699
8.1 704
8.12 728
8.14 706
8.16 696
8.18 677
8.2 710
8.22 689
8.24 652
8.26 685
8.28 715
8.3 669
8.32 694
8.34 720
8.36 679
8.38 744
8.4 660
8.42 673
8.44 657
8.46 657
8.48 681
8.5 693
8.52 706
8.54 706
8.56 697
8.58 679
8.6 646
8.62 711
8.64 637
8.66 714
8.68 692
8.7 677
8.72 690
8.74 645
8.76 645
8.78 668
8.8 715
8.82 660
8.84 626
8.86 643
8.88 653
8.9 653
8.92 677
8.94 701
8.96 666
8.98 685
9 704
9.02 633
9.04 658
9.06 684
9.08 662
9.1 729
9.12 681
9.14 678
9.16 681
9.18 626
9.2 663
9.22 629
9.24 668
9.26 632
9.28 661
9.3 650
9.32 660
9.34 609
9.36 661
9.38 726
9.4 687
9.42 683
9.44 696
9.46 672
9.48 678
9.5 666
9.52 690
9.54 685
9.56 664
9.58 678
9.6 687
9.62 640
9.64 667
9.66 643
9.68 648
9.7 643
9.72 651
9.74 670
9.76 696
9.78 608
9.8 615
9.82 637
9.84 670
9.86 629
9.88 647
9.9 670
9.92 607
9.94 645
9.96 660
9.98 634
10 633
10.02 643
10.04 672
10.06 616
10.08 635
10.1 626
10.12 674
10.14 618
10.16 658
10.18 657
10.2 640
10.22 650
10.24 646
10.26 617
10.28 633
10.3 632
10.32 624
10.34 657
10.36 637
10.38 631
10.4 602
10.42 651
10.44 618
10.46 594
10.48 683
10.5 622
10.52 601
10.54 616
10.56 665
10.58 638
10.6 598
10.62 609
10.64 626
10.66 587
10.68 632
10.7 594
10.72 617
10.74 620
10.76 669
10.78 644
10.8 636
10.82 620
10.84 631
10.86 570
10.88 655
10.9 619
10.92 617
10.94 646
10.96 623
10.98 662
11 631
11.02 615
11.04 634
11.06 644
11.08 598
11.1 636
11.12 681
11.14 656
11.16 605
11.18 643
11.2 606
11.22 602
11.24 627
11.26 619
11.28 653
11.3 620
11.32 612
11.34 591
11.36 613
11.38 614
11.4 631
11.42 616
11.44 658
11.46 624
11.48 633
11.5 620
11.52 636
11.54 632
11.56 602
11.58 620
11.6 608
11.62 649
11.64 609
11.66 649
11.68 664
11.7 606
11.72 637
11.74 618
11.76 628
11.78 627
11.8 620
11.82 604
11.84 628
11.86 603
11.88 618
11.9 641
11.92 635
11.94 651
11.96 615
11.98 675
12 659
12.02 689
12.04 596
12.06 623
12.08 712
12.1 663
12.12 665
12.14 609
12.16 661
12.18 639
12.2 655
12.22 650
12.24 670
12.26 619
12.28 600
12.3 613
12.32 615
12.34 650
12.36 599
12.38 662
12.4 649
12.42 631
12.44 696
12.46 660
12.48 666
12.5 679
12.52 716
12.54 655
12.56 670
12.58 656
12.6 648
12.62 664
12.64 663
12.66 652
12.68 664
12.7 616
12.72 669
12.74 667
12.76 647
12.78 686
12.8 650
12.82 681
12.84 667
12.86 671
12.88 714
12.9 682
12.92 725
12.94 717
12.96 696
12.98 694
13 695
13.02 744
13.04 706
13.06 694
13.08 683
13.1 646
13.12 631
13.14 682
13.16 719
13.18 660
13.2 675
13.22 675
13.24 713
13.26 695
13.28 723
13.3 698
13.32 687
13.34 696
13.36 662
13.38 700
13.4 648
13.42 673
13.44 660
13.46 689
13.48 716
13.5 725
13.52 723
13.54 669
13.56 668
13.58 700
13.6 692
13.62 772
13.64 682
13.66 700
13.68 709
13.7 703
13.72 702
13.74 706
13.76 733
13.78 715
13.8 721
13.82 756
13.84 687
13.86 706
13.88 740
13.9 735
13.92 699
13.94 738
13.96 735
13.98 731
14 735
14.02 699
14.04 726
14.06 735
14.08 715
14.1 732
14.12 736
14.14 767
14.16 761
14.18 712
14.2 708
14.22 722
14.24 741
14.26 739
14.28 762
14.3 781
14.32 700
14.34 708
14.36 773
14.38 802
14.4 747
14.42 722
14.44 727
14.46 787
14.48 769
14.5 724
14.52 776
14.54 745
14.56 763
14.58 755
14.6 787
14.62 763
14.64 777
14.66 752
14.68 749
14.7 753
14.72 758
14.74 760
14.76 779
14.78 778
14.8 727
14.82 791
14.84 813
14.86 811
14.88 770
14.9 766
14.92 871
14.94 801
14.96 795
14.98 821
15 762
15.02 715
15.04 809
15.06 763
15.08 791
15.1 811
15.12 779
15.14 814
15.16 787
15.18 840
15.2 853
15.22 801
15.24 822
15.26 825
15.28 853
15.3 826
15.32 814
15.34 842
15.36 830
15.38 815
15.4 813
15.42 820
15.44 808
15.46 826
15.48 861
15.5 858
15.52 856
15.54 806
15.56 874
15.58 820
15.6 862
15.62 861
15.64 840
15.66 879
15.68 834
15.7 854
15.72 891
15.74 838
15.76 866
15.78 905
15.8 862
15.82 815
15.84 825
15.86 894
15.88 887
15.9 882
15.92 918
15.94 931
15.96 857
15.98 839
16 893
16.02 905
16.04 953
16.06 890
16.08 911
16.1 888
16.12 915
16.14 842
16.16 928
16.18 855
16.2 855
16.22 873
16.24 912
16.26 907
16.28 934
16.3 921
16.32 967
16.34 944
16.36 873
16.38 942
16.4 913
16.42 902
16.44 939
16.46 949
16.48 921
16.5 940
16.52 981
16.54 922
16.56 938
16.58 978
16.6 939
16.62 995
16.64 941
16.66 979
16.68 952
16.7 976
16.72 930
16.74 1023
16.76 971
16.78 1037
16.8 1031
16.82 1016
16.84 1074
16.86 1081
16.88 1114
16.9 1150
16.92 1253
16.94 1373
16.96 1594
16.98 1665
17 1853
17.02 1892
17.04 1807
17.06 1660
17.08 1529
17.1 1333
17.12 1202
17.14 1130
17.16 1063
17.18 1110
17.2 1054
17.22 1020
17.24 1079
17.26 1074
17.28 1091
17.3 1061
17.32 1091
17.34 1053
17.36 1031
17.38 1070
17.4 1051
17.42 1060
17.44 1087
17.46 1054
17.48 1064
17.5 1040
17.52 1104
17.54 1064
17.56 1070
17.58 1115
17.6 1143
17.62 1107
17.64 1103
17.66 1125
17.68 1142
17.7 1176
17.72 1137
17.74 1151
17.76 1123
17.78 1099
17.8 1051
17.82 1161
17.84 1105
17.86 1184
17.88 1096
17.9 1139
17.92 1067
17.94 1185
17.96 1159
17.98 1143
18 1148
18.02 1063
18.04 1181
18.06 1207
18.08 1186
18.1 1115
18.12 1175
18.14 1186
18.16 1225
18.18 1248
18.2 1205
18.22 1170
18.24 1143
18.26 1197
18.28 1233
18.3 1238
18.32 1273
18.34 1243
18.36 1215
18.38 1290
18.4 1188
18.42 1177
18.44 1303
18.46 1286
18.48 1289
18.5 1277
18.52 1256
18.54 1267
18.56 1268
18.58 1278
18.6 1234
18.62 1317
18.64 1226
18.66 1307
18.68 1335
18.7 1242
18.72 1317
18.74 1348
18.76 1355
18.78 1339
18.8 1357
18.82 1326
18.84 1297
18.86 1364
18.88 1273
18.9 1286
18.92 1367
18.94 1303
18.96 1333
18.98 1309
19 1398
19.02 1293
19.04 1367
19.06 1384
19.08 1372
19.1 1333
19.12 1370
19.14 1332
19.16 1374
19.18 1363
19.2 1384
19.22 1401
19.24 1401
19.26 1345
19.28 1403
19.3 1421
19.32 1405
19.34 1349
19.36 1421
19.38 1413
19.4 1346
19.42 1401
19.44 1389
19.46 1387
19.48 1423
19.5 1346
19.52 1440
19.54 1396
19.56 1463
19.58 1418
19.6 1366
19.62 1389
19.64 1516
19.66 1442
19.68 1354
19.7 1407
19.72 1444
19.74 1438
19.76 1484
19.78 1498
19.8 1434
19.82 1438
19.84 1508
19.86 1489
19.88 1457
19.9 1448
19.92 1483
19.94 1442
19.96 1440
19.98 1484
20 1540