File: xrd-UiO-67/pxrddata/35-34.ASC
3 2625
3.02 2530
3.04 2466
3.06 2323
3.08 2159
3.1 2122
3.12 2151
3.14 2018
3.16 1988
3.18 2014
3.2 1986
3.22 1878
3.24 1827
3.26 1862
3.28 1812
3.3 1835
3.32 1794
3.34 1860
3.36 1752
3.38 1709
3.4 1751
3.42 1765
3.44 1749
3.46 1755
3.48 1740
3.5 1728
3.52 1617
3.54 1618
3.56 1685
3.58 1688
3.6 1715
3.62 1649
3.64 1607
3.66 1554
3.68 1548
3.7 1597
3.72 1566
3.74 1606
3.76 1558
3.78 1538
3.8 1576
3.82 1577
3.84 1550
3.86 1555
3.88 1515
3.9 1529
3.92 1565
3.94 1491
3.96 1457
3.98 1456
4 1498
4.02 1493
4.04 1412
4.06 1483
4.08 1517
4.1 1488
4.12 1499
4.14 1481
4.16 1468
4.18 1403
4.2 1421
4.22 1355
4.24 1446
4.26 1437
4.28 1429
4.3 1356
4.32 1432
4.34 1398
4.36 1437
4.38 1383
4.4 1355
4.42 1464
4.44 1439
4.46 1410
4.48 1460
4.5 1381
4.52 1432
4.54 1352
4.56 1360
4.58 1309
4.6 1375
4.62 1390
4.64 1290
4.66 1306
4.68 1325
4.7 1351
4.72 1388
4.74 1342
4.76 1446
4.78 1393
4.8 1385
4.82 1354
4.84 1348
4.86 1344
4.88 1339
4.9 1341
4.92 1370
4.94 1418
4.96 1356
4.98 1443
5 1372
5.02 1433
5.04 1389
5.06 1365
5.08 1458
5.1 1367
5.12 1429
5.14 1444
5.16 1454
5.18 1493
5.2 1541
5.22 1497
5.24 1566
5.26 1603
5.28 1669
5.3 1659
5.32 1652
5.34 1772
5.36 1913
5.38 1923
5.4 1986
5.42 2179
5.44 2423
5.46 2500
5.48 2579
5.5 2315
5.52 1947
5.54 1731
5.56 1626
5.58 1572
5.6 1508
5.62 1415
5.64 1457
5.66 1405
5.68 1298
5.7 1364
5.72 1255
5.74 1279
5.76 1211
5.78 1276
5.8 1189
5.82 1209
5.84 1193
5.86 1093
5.88 1125
5.9 1166
5.92 999
5.94 1046
5.96 1057
5.98 1019
6 1037
6.02 1014
6.04 1056
6.06 995
6.08 939
6.1 965
6.12 944
6.14 976
6.16 1015
6.18 996
6.2 890
6.22 931
6.24 942
6.26 979
6.28 962
6.3 926
6.32 933
6.34 932
6.36 908
6.38 946
6.4 919
6.42 956
6.44 902
6.46 860
6.48 861
6.5 829
6.52 914
6.54 880
6.56 882
6.58 882
6.6 893
6.62 814
6.64 845
6.66 911
6.68 859
6.7 890
6.72 818
6.74 840
6.76 823
6.78 822
6.8 836
6.82 853
6.84 826
6.86 862
6.88 827
6.9 831
6.92 811
6.94 840
6.96 789
6.98 817
7 789
7.02 778
7.04 826
7.06 754
7.08 842
7.1 795
7.12 814
7.14 834
7.16 820
7.18 831
7.2 793
7.22 840
7.24 781
7.26 755
7.28 776
7.3 774
7.32 788
7.34 789
7.36 768
7.38 841
7.4 834
7.42 800
7.44 770
7.46 769
7.48 743
7.5 786
7.52 762
7.54 742
7.56 782
7.58 772
7.6 729
7.62 830
7.64 826
7.66 763
7.68 771
7.7 694
7.72 780
7.74 822
7.76 779
7.78 814
7.8 763
7.82 772
7.84 754
7.86 766
7.88 766
7.9 828
7.92 769
7.94 726
7.96 733
7.98 729
8 743
8.02 748
8.04 684
8.06 752
8.08 724
8.1 779
8.12 748
8.14 751
8.16 736
8.18 719
8.2 762
8.22 761
8.24 752
8.26 794
8.28 762
8.3 722
8.32 713
8.34 719
8.36 737
8.38 753
8.4 778
8.42 728
8.44 777
8.46 769
8.48 766
8.5 691
8.52 708
8.54 700
8.56 668
8.58 713
8.6 725
8.62 695
8.64 730
8.66 732
8.68 739
8.7 732
8.72 706
8.74 700
8.76 698
8.78 707
8.8 761
8.82 720
8.84 738
8.86 763
8.88 736
8.9 758
8.92 743
8.94 764
8.96 756
8.98 722
9 758
9.02 732
9.04 751
9.06 777
9.08 714
9.1 789
9.12 801
9.14 845
9.16 758
9.18 858
9.2 828
9.22 855
9.24 839
9.26 838
9.28 913
9.3 965
9.32 1032
9.34 1057
9.36 1123
9.38 1179
9.4 1191
9.42 1092
9.44 923
9.46 807
9.48 832
9.5 735
9.52 804
9.54 723
9.56 701
9.58 756
9.6 747
9.62 723
9.64 696
9.66 725
9.68 717
9.7 696
9.72 722
9.74 709
9.76 693
9.78 701
9.8 710
9.82 695
9.84 714
9.86 701
9.88 695
9.9 704
9.92 707
9.94 725
9.96 667
9.98 746
10 678
10.02 715
10.04 690
10.06 645
10.08 718
10.1 683
10.12 710
10.14 698
10.16 733
10.18 749
10.2 713
10.22 686
10.24 703
10.26 698
10.28 679
10.3 715
10.32 737
10.34 698
10.36 707
10.38 680
10.4 681
10.42 672
10.44 670
10.46 705
10.48 717
10.5 733
10.52 718
10.54 768
10.56 691
10.58 718
10.6 752
10.62 746
10.64 758
10.66 736
10.68 772
10.7 787
10.72 777
10.74 786
10.76 893
10.78 885
10.8 896
10.82 874
10.84 940
10.86 925
10.88 814
10.9 810
10.92 804
10.94 753
10.96 766
10.98 765
11 710
11.02 722
11.04 678
11.06 739
11.08 732
11.1 673
11.12 652
11.14 716
11.16 697
11.18 643
11.2 673
11.22 689
11.24 681
11.26 640
11.28 692
11.3 649
11.32 703
11.34 706
11.36 662
11.38 696
11.4 709
11.42 635
11.44 754
11.46 647
11.48 685
11.5 625
11.52 647
11.54 702
11.56 702
11.58 671
11.6 668
11.62 637
11.64 709
11.66 698
11.68 662
11.7 686
11.72 677
11.74 681
11.76 714
11.78 661
11.8 639
11.82 703
11.84 686
11.86 702
11.88 715
11.9 691
11.92 727
11.94 717
11.96 687
11.98 690
12 648
12.02 734
12.04 687
12.06 717
12.08 678
12.1 673
12.12 723
12.14 688
12.16 709
12.18 705
12.2 724
12.22 721
12.24 701
12.26 725
12.28 745
12.3 749
12.32 706
12.34 729
12.36 742
12.38 710
12.4 699
12.42 701
12.44 713
12.46 729
12.48 762
12.5 724
12.52 669
12.54 696
12.56 667
12.58 677
12.6 672
12.62 696
12.64 678
12.66 718
12.68 705
12.7 699
12.72 670
12.74 673
12.76 689
12.78 703
12.8 700
12.82 696
12.84 702
12.86 721
12.88 697
12.9 737
12.92 685
12.94 738
12.96 739
12.98 768
13 750
13.02 743
13.04 731
13.06 726
13.08 689
13.1 759
13.12 758
13.14 735
13.16 762
13.18 722
13.2 725
13.22 755
13.24 753
13.26 749
13.28 749
13.3 689
13.32 777
13.34 765
13.36 750
13.38 759
13.4 765
13.42 803
13.44 787
13.46 772
13.48 767
13.5 712
13.52 734
13.54 728
13.56 749
13.58 746
13.6 780
13.62 778
13.64 774
13.66 706
13.68 796
13.7 778
13.72 767
13.74 783
13.76 767
13.78 766
13.8 689
13.82 780
13.84 751
13.86 744
13.88 725
13.9 775
13.92 775
13.94 739
13.96 776
13.98 820
14 823
14.02 795
14.04 753
14.06 795
14.08 754
14.1 746
14.12 744
14.14 779
14.16 766
14.18 728
14.2 800
14.22 795
14.24 826
14.26 800
14.28 857
14.3 826
14.32 843
14.34 805
14.36 837
14.38 771
14.4 799
14.42 831
14.44 822
14.46 812
14.48 832
14.5 875
14.52 809
14.54 829
14.56 823
14.58 825
14.6 848
14.62 813
14.64 807
14.66 849
14.68 831
14.7 849
14.72 815
14.74 776
14.76 858
14.78 777
14.8 795
14.82 830
14.84 838
14.86 855
14.88 854
14.9 845
14.92 829
14.94 853
14.96 827
14.98 828
15 816
15.02 809
15.04 830
15.06 842
15.08 877
15.1 867
15.12 792
15.14 835
15.16 885
15.18 881
15.2 864
15.22 835
15.24 844
15.26 831
15.28 937
15.3 833
15.32 894
15.34 880
15.36 923
15.38 864
15.4 869
15.42 870
15.44 899
15.46 868
15.48 897
15.5 923
15.52 892
15.54 875
15.56 930
15.58 912
15.6 895
15.62 856
15.64 937
15.66 898
15.68 883
15.7 922
15.72 898
15.74 883
15.76 879
15.78 923
15.8 892
15.82 912
15.84 929
15.86 923
15.88 914
15.9 922
15.92 898
15.94 954
15.96 939
15.98 961
16 949
16.02 981
16.04 964
16.06 969
16.08 917
16.1 955
16.12 941
16.14 962
16.16 1003
16.18 967
16.2 936
16.22 940
16.24 960
16.26 995
16.28 978
16.3 978
16.32 983
16.34 942
16.36 993
16.38 954
16.4 987
16.42 1006
16.44 1020
16.46 930
16.48 1025
16.5 1030
16.52 1026
16.54 1005
16.56 1022
16.58 992
16.6 984
16.62 1046
16.64 1012
16.66 1007
16.68 1082
16.7 1085
16.72 1043
16.74 1075
16.76 1064
16.78 1154
16.8 1082
16.82 1113
16.84 1110
16.86 1166
16.88 1226
16.9 1150
16.92 1257
16.94 1315
16.96 1354
16.98 1478
17 1615
17.02 1872
17.04 2048
17.06 2145
17.08 1978
17.1 1712
17.12 1414
17.14 1268
17.16 1154
17.18 1207
17.2 1165
17.22 1142
17.24 1073
17.26 1119
17.28 1198
17.3 1166
17.32 1221
17.34 1109
17.36 1117
17.38 1177
17.4 1165
17.42 1187
17.44 1220
17.46 1216
17.48 1144
17.5 1130
17.52 1174
17.54 1189
17.56 1153
17.58 1175
17.6 1210
17.62 1165
17.64 1242
17.66 1219
17.68 1144
17.7 1146
17.72 1216
17.74 1211
17.76 1244
17.78 1252
17.8 1209
17.82 1124
17.84 1169
17.86 1205
17.88 1156
17.9 1261
17.92 1319
17.94 1202
17.96 1188
17.98 1275
18 1217
18.02 1226
18.04 1186
18.06 1199
18.08 1170
18.1 1196
18.12 1202
18.14 1265
18.16 1252
18.18 1259
18.2 1259
18.22 1295
18.24 1260
18.26 1211
18.28 1286
18.3 1287
18.32 1269
18.34 1299
18.36 1308
18.38 1285
18.4 1376
18.42 1361
18.44 1282
18.46 1286
18.48 1284
18.5 1300
18.52 1326
18.54 1324
18.56 1332
18.58 1287
18.6 1400
18.62 1399
18.64 1273
18.66 1344
18.68 1370
18.7 1388
18.72 1340
18.74 1357
18.76 1402
18.78 1420
18.8 1420
18.82 1326
18.84 1318
18.86 1442
18.88 1431
18.9 1427
18.92 1338
18.94 1427
18.96 1421
18.98 1473
19 1404
19.02 1438
19.04 1378
19.06 1462
19.08 1450
19.1 1408
19.12 1448
19.14 1447
19.16 1463
19.18 1438
19.2 1464
19.22 1483
19.24 1490
19.26 1479
19.28 1494
19.3 1471
19.32 1483
19.34 1497
19.36 1504
19.38 1563
19.4 1506
19.42 1555
19.44 1524
19.46 1614
19.48 1621
19.5 1627
19.52 1620
19.54 1562
19.56 1476
19.58 1583
19.6 1568
19.62 1594
19.64 1573
19.66 1558
19.68 1556
19.7 1580
19.72 1503
19.74 1591
19.76 1561
19.78 1571
19.8 1578
19.82 1511
19.84 1550
19.86 1546
19.88 1624
19.9 1537
19.92 1514
19.94 1537
19.96 1518
19.98 1599
20 1542