File: xrd-UiO-67/pxrddata/35-32.ASC
3 2103
3.02 2001
3.04 1878
3.06 1759
3.08 1695
3.1 1622
3.12 1603
3.14 1538
3.16 1569
3.18 1519
3.2 1485
3.22 1478
3.24 1462
3.26 1487
3.28 1430
3.3 1463
3.32 1427
3.34 1411
3.36 1377
3.38 1381
3.4 1336
3.42 1357
3.44 1345
3.46 1274
3.48 1309
3.5 1391
3.52 1326
3.54 1307
3.56 1310
3.58 1227
3.6 1221
3.62 1280
3.64 1292
3.66 1279
3.68 1280
3.7 1231
3.72 1201
3.74 1221
3.76 1212
3.78 1143
3.8 1186
3.82 1187
3.84 1213
3.86 1143
3.88 1208
3.9 1157
3.92 1171
3.94 1168
3.96 1170
3.98 1159
4 1118
4.02 1145
4.04 1145
4.06 1093
4.08 1118
4.1 1182
4.12 1148
4.14 1145
4.16 1151
4.18 1128
4.2 1138
4.22 1177
4.24 1171
4.26 1130
4.28 1116
4.3 1088
4.32 1092
4.34 1078
4.36 1052
4.38 1169
4.4 1158
4.42 1126
4.44 1074
4.46 1111
4.48 1113
4.5 1043
4.52 1080
4.54 1055
4.56 1104
4.58 1040
4.6 1132
4.62 1098
4.64 1044
4.66 1040
4.68 1087
4.7 1034
4.72 1057
4.74 1006
4.76 1044
4.78 1083
4.8 1176
4.82 1071
4.84 1042
4.86 1096
4.88 1206
4.9 1159
4.92 1149
4.94 1153
4.96 1225
4.98 1167
5 1238
5.02 1215
5.04 1216
5.06 1199
5.08 1227
5.1 1301
5.12 1310
5.14 1357
5.16 1331
5.18 1351
5.2 1442
5.22 1451
5.24 1488
5.26 1482
5.28 1584
5.3 1623
5.32 1737
5.34 1733
5.36 1925
5.38 2005
5.4 2154
5.42 2293
5.44 2450
5.46 2578
5.48 2626
5.5 2693
5.52 2659
5.54 2585
5.56 2296
5.58 2107
5.6 2079
5.62 1985
5.64 1804
5.66 1751
5.68 1814
5.7 1795
5.72 1863
5.74 1928
5.76 1999
5.78 1905
5.8 2027
5.82 2075
5.84 1945
5.86 1850
5.88 1773
5.9 1634
5.92 1504
5.94 1374
5.96 1209
5.98 1171
6 1078
6.02 984
6.04 901
6.06 967
6.08 870
6.1 853
6.12 805
6.14 856
6.16 866
6.18 766
6.2 807
6.22 788
6.24 763
6.26 760
6.28 790
6.3 740
6.32 766
6.34 805
6.36 763
6.38 752
6.4 769
6.42 751
6.44 802
6.46 780
6.48 734
6.5 759
6.52 736
6.54 727
6.56 729
6.58 741
6.6 756
6.62 787
6.64 795
6.66 763
6.68 765
6.7 775
6.72 775
6.74 785
6.76 742
6.78 770
6.8 779
6.82 801
6.84 809
6.86 753
6.88 797
6.9 738
6.92 797
6.94 712
6.96 721
6.98 757
7 757
7.02 690
7.04 692
7.06 711
7.08 723
7.1 678
7.12 696
7.14 690
7.16 704
7.18 670
7.2 699
7.22 696
7.24 707
7.26 677
7.28 664
7.3 647
7.32 619
7.34 666
7.36 694
7.38 686
7.4 660
7.42 649
7.44 671
7.46 670
7.48 627
7.5 657
7.52 681
7.54 690
7.56 640
7.58 641
7.6 648
7.62 646
7.64 646
7.66 645
7.68 596
7.7 649
7.72 665
7.74 643
7.76 695
7.78 660
7.8 635
7.82 641
7.84 681
7.86 727
7.88 671
7.9 660
7.92 714
7.94 688
7.96 643
7.98 632
8 665
8.02 658
8.04 653
8.06 673
8.08 651
8.1 730
8.12 671
8.14 691
8.16 669
8.18 640
8.2 703
8.22 658
8.24 680
8.26 677
8.28 669
8.3 672
8.32 674
8.34 651
8.36 677
8.38 656
8.4 641
8.42 683
8.44 656
8.46 676
8.48 674
8.5 718
8.52 695
8.54 620
8.56 687
8.58 667
8.6 718
8.62 652
8.64 683
8.66 674
8.68 677
8.7 664
8.72 639
8.74 649
8.76 704
8.78 679
8.8 704
8.82 675
8.84 689
8.86 759
8.88 721
8.9 708
8.92 748
8.94 693
8.96 711
8.98 703
9 737
9.02 790
9.04 785
9.06 768
9.08 813
9.1 860
9.12 811
9.14 856
9.16 861
9.18 970
9.2 946
9.22 973
9.24 1087
9.26 1100
9.28 1135
9.3 1265
9.32 1350
9.34 1545
9.36 1652
9.38 1778
9.4 1705
9.42 1447
9.44 1295
9.46 1226
9.48 1027
9.5 980
9.52 843
9.54 777
9.56 751
9.58 728
9.6 752
9.62 781
9.64 704
9.66 672
9.68 732
9.7 718
9.72 695
9.74 711
9.76 738
9.78 663
9.8 741
9.82 725
9.84 731
9.86 698
9.88 706
9.9 732
9.92 745
9.94 695
9.96 739
9.98 721
10 743
10.02 771
10.04 729
10.06 765
10.08 729
10.1 796
10.12 746
10.14 754
10.16 817
10.18 816
10.2 852
10.22 863
10.24 860
10.26 770
10.28 833
10.3 761
10.32 804
10.34 733
10.36 714
10.38 751
10.4 685
10.42 734
10.44 772
10.46 780
10.48 741
10.5 709
10.52 796
10.54 795
10.56 736
10.58 788
10.6 830
10.62 767
10.64 805
10.66 883
10.68 928
10.7 942
10.72 969
10.74 1018
10.76 1074
10.78 1158
10.8 1200
10.82 1231
10.84 1247
10.86 1280
10.88 1192
10.9 1120
10.92 1104
10.94 1133
10.96 1174
10.98 1040
11 1152
11.02 1056
11.04 1022
11.06 1022
11.08 945
11.1 855
11.12 842
11.14 801
11.16 804
11.18 770
11.2 719
11.22 727
11.24 687
11.26 720
11.28 720
11.3 717
11.32 717
11.34 729
11.36 729
11.38 766
11.4 739
11.42 777
11.44 788
11.46 771
11.48 795
11.5 816
11.52 777
11.54 781
11.56 779
11.58 816
11.6 809
11.62 786
11.64 745
11.66 745
11.68 779
11.7 771
11.72 720
11.74 711
11.76 672
11.78 711
11.8 718
11.82 736
11.84 692
11.86 708
11.88 714
11.9 722
11.92 715
11.94 707
11.96 678
11.98 713
12 723
12.02 699
12.04 667
12.06 699
12.08 754
12.1 742
12.12 716
12.14 738
12.16 766
12.18 788
12.2 778
12.22 830
12.24 769
12.26 759
12.28 825
12.3 769
12.32 796
12.34 815
12.36 768
12.38 797
12.4 796
12.42 757
12.44 794
12.46 763
12.48 732
12.5 757
12.52 740
12.54 723
12.56 711
12.58 747
12.6 713
12.62 778
12.64 694
12.66 696
12.68 761
12.7 737
12.72 747
12.74 676
12.76 746
12.78 761
12.8 718
12.82 738
12.84 729
12.86 753
12.88 737
12.9 787
12.92 748
12.94 712
12.96 731
12.98 747
13 720
13.02 753
13.04 722
13.06 734
13.08 789
13.1 727
13.12 687
13.14 765
13.16 760
13.18 791
13.2 803
13.22 732
13.24 746
13.26 797
13.28 789
13.3 812
13.32 795
13.34 823
13.36 754
13.38 811
13.4 801
13.42 768
13.44 739
13.46 782
13.48 792
13.5 814
13.52 832
13.54 809
13.56 802
13.58 789
13.6 746
13.62 808
13.64 810
13.66 797
13.68 767
13.7 806
13.72 835
13.74 847
13.76 774
13.78 820
13.8 855
13.82 803
13.84 722
13.86 809
13.88 780
13.9 833
13.92 787
13.94 836
13.96 795
13.98 850
14 850
14.02 804
14.04 778
14.06 837
14.08 819
14.1 835
14.12 800
14.14 787
14.16 839
14.18 865
14.2 872
14.22 797
14.24 854
14.26 897
14.28 891
14.3 882
14.32 922
14.34 913
14.36 929
14.38 892
14.4 922
14.42 875
14.44 846
14.46 873
14.48 891
14.5 863
14.52 911
14.54 883
14.56 901
14.58 868
14.6 844
14.62 851
14.64 848
14.66 880
14.68 869
14.7 833
14.72 893
14.74 888
14.76 935
14.78 868
14.8 924
14.82 888
14.84 898
14.86 928
14.88 900
14.9 916
14.92 904
14.94 869
14.96 891
14.98 914
15 905
15.02 901
15.04 886
15.06 875
15.08 892
15.1 889
15.12 891
15.14 969
15.16 973
15.18 960
15.2 868
15.22 880
15.24 866
15.26 904
15.28 910
15.3 869
15.32 936
15.34 987
15.36 961
15.38 947
15.4 936
15.42 923
15.44 919
15.46 932
15.48 982
15.5 947
15.52 968
15.54 967
15.56 969
15.58 928
15.6 952
15.62 958
15.64 959
15.66 942
15.68 938
15.7 967
15.72 962
15.74 937
15.76 935
15.78 958
15.8 994
15.82 1017
15.84 940
15.86 932
15.88 957
15.9 968
15.92 984
15.94 963
15.96 1024
15.98 999
16 965
16.02 965
16.04 1033
16.06 1012
16.08 969
16.1 1005
16.12 1025
16.14 1025
16.16 1028
16.18 1074
16.2 1124
16.22 1122
16.24 1050
16.26 1063
16.28 1101
16.3 984
16.32 1117
16.34 1092
16.36 1104
16.38 1084
16.4 1070
16.42 1095
16.44 1144
16.46 1085
16.48 1102
16.5 1131
16.52 1118
16.54 1106
16.56 1124
16.58 1151
16.6 1113
16.62 1084
16.64 1143
16.66 1065
16.68 1104
16.7 1081
16.72 1075
16.74 1127
16.76 1117
16.78 1162
16.8 1219
16.82 1189
16.84 1127
16.86 1138
16.88 1200
16.9 1174
16.92 1227
16.94 1221
16.96 1336
16.98 1400
17 1416
17.02 1390
17.04 1310
17.06 1282
17.08 1249
17.1 1199
17.12 1211
17.14 1244
17.16 1173
17.18 1193
17.2 1196
17.22 1223
17.24 1216
17.26 1245
17.28 1274
17.3 1237
17.32 1247
17.34 1202
17.36 1269
17.38 1361
17.4 1228
17.42 1279
17.44 1309
17.46 1210
17.48 1297
17.5 1297
17.52 1299
17.54 1211
17.56 1227
17.58 1299
17.6 1286
17.62 1308
17.64 1299
17.66 1265
17.68 1302
17.7 1316
17.72 1278
17.74 1317
17.76 1295
17.78 1365
17.8 1318
17.82 1307
17.84 1388
17.86 1371
17.88 1296
17.9 1315
17.92 1336
17.94 1396
17.96 1332
17.98 1335
18 1291
18.02 1306
18.04 1352
18.06 1361
18.08 1318
18.1 1389
18.12 1346
18.14 1311
18.16 1383
18.18 1307
18.2 1340
18.22 1338
18.24 1318
18.26 1391
18.28 1346
18.3 1349
18.32 1430
18.34 1379
18.36 1334
18.38 1434
18.4 1375
18.42 1311
18.44 1373
18.46 1344
18.48 1418
18.5 1370
18.52 1376
18.54 1404
18.56 1373
18.58 1439
18.6 1397
18.62 1464
18.64 1493
18.66 1484
18.68 1562
18.7 1585
18.72 1548
18.74 1550
18.76 1567
18.78 1567
18.8 1500
18.82 1466
18.84 1467
18.86 1549
18.88 1499
18.9 1567
18.92 1531
18.94 1498
18.96 1490
18.98 1544
19 1574
19.02 1618
19.04 1597
19.06 1606
19.08 1608
19.1 1625
19.12 1676
19.14 1659
19.16 1575
19.18 1667
19.2 1643
19.22 1582
19.24 1624
19.26 1602
19.28 1640
19.3 1596
19.32 1651
19.34 1613
19.36 1711
19.38 1712
19.4 1737
19.42 1706
19.44 1819
19.46 1954
19.48 1893
19.5 1940
19.52 1886
19.54 1877
19.56 1954
19.58 1988
19.6 1888
19.62 1827
19.64 1822
19.66 1662
19.68 1728
19.7 1691
19.72 1661
19.74 1591
19.76 1572
19.78 1562
19.8 1610
19.82 1604
19.84 1614
19.86 1625
19.88 1720
19.9 1729
19.92 1680
19.94 1662
19.96 1699
19.98 1628
20 1743