File: xrd-UiO-67/pxrddata/35-36.ASC
3 2861
3.02 2643
3.04 2454
3.06 2379
3.08 2328
3.1 2219
3.12 2116
3.14 2047
3.16 2037
3.18 2041
3.2 1956
3.22 1999
3.24 1965
3.26 1925
3.28 1934
3.3 1868
3.32 1831
3.34 1774
3.36 1807
3.38 1744
3.4 1801
3.42 1778
3.44 1698
3.46 1699
3.48 1718
3.5 1597
3.52 1634
3.54 1608
3.56 1678
3.58 1611
3.6 1583
3.62 1562
3.64 1540
3.66 1567
3.68 1477
3.7 1536
3.72 1513
3.74 1451
3.76 1506
3.78 1409
3.8 1409
3.82 1401
3.84 1445
3.86 1420
3.88 1338
3.9 1388
3.92 1415
3.94 1433
3.96 1383
3.98 1290
4 1335
4.02 1225
4.04 1310
4.06 1261
4.08 1310
4.1 1302
4.12 1276
4.14 1224
4.16 1250
4.18 1266
4.2 1239
4.22 1215
4.24 1209
4.26 1237
4.28 1251
4.3 1199
4.32 1233
4.34 1208
4.36 1264
4.38 1184
4.4 1159
4.42 1147
4.44 1192
4.46 1130
4.48 1165
4.5 1132
4.52 1102
4.54 1153
4.56 1168
4.58 1046
4.6 1119
4.62 1096
4.64 1125
4.66 1111
4.68 1089
4.7 1142
4.72 1072
4.74 1129
4.76 1040
4.78 1150
4.8 1073
4.82 1098
4.84 1069
4.86 1123
4.88 1088
4.9 1082
4.92 1081
4.94 1052
4.96 1004
4.98 1036
5 1048
5.02 1055
5.04 1150
5.06 1079
5.08 1174
5.1 1077
5.12 1157
5.14 1247
5.16 1134
5.18 1183
5.2 1226
5.22 1274
5.24 1262
5.26 1277
5.28 1301
5.3 1348
5.32 1373
5.34 1438
5.36 1434
5.38 1596
5.4 1579
5.42 1753
5.44 1859
5.46 1939
5.48 1863
5.5 1662
5.52 1495
5.54 1325
5.56 1260
5.58 1166
5.6 1135
5.62 1157
5.64 1079
5.66 1067
5.68 1017
5.7 1027
5.72 1031
5.74 992
5.76 978
5.78 977
5.8 961
5.82 918
5.84 968
5.86 911
5.88 897
5.9 911
5.92 944
5.94 903
5.96 932
5.98 882
6 860
6.02 857
6.04 855
6.06 836
6.08 872
6.1 840
6.12 806
6.14 857
6.16 798
6.18 846
6.2 818
6.22 862
6.24 807
6.26 851
6.28 812
6.3 810
6.32 828
6.34 790
6.36 809
6.38 790
6.4 802
6.42 804
6.44 800
6.46 807
6.48 758
6.5 790
6.52 774
6.54 764
6.56 845
6.58 773
6.6 790
6.62 810
6.64 782
6.66 754
6.68 757
6.7 787
6.72 778
6.74 777
6.76 812
6.78 753
6.8 764
6.82 731
6.84 778
6.86 750
6.88 769
6.9 774
6.92 735
6.94 758
6.96 759
6.98 766
7 706
7.02 712
7.04 726
7.06 722
7.08 734
7.1 734
7.12 756
7.14 740
7.16 727
7.18 686
7.2 764
7.22 730
7.24 744
7.26 702
7.28 717
7.3 692
7.32 671
7.34 718
7.36 722
7.38 731
7.4 729
7.42 738
7.44 736
7.46 709
7.48 690
7.5 726
7.52 742
7.54 733
7.56 694
7.58 708
7.6 754
7.62 716
7.64 729
7.66 673
7.68 644
7.7 699
7.72 701
7.74 717
7.76 681
7.78 713
7.8 713
7.82 703
7.84 711
7.86 699
7.88 699
7.9 710
7.92 714
7.94 650
7.96 711
7.98 706
8 671
8.02 680
8.04 686
8.06 668
8.08 635
8.1 682
8.12 726
8.14 661
8.16 660
8.18 682
8.2 637
8.22 652
8.24 698
8.26 663
8.28 654
8.3 648
8.32 648
8.34 656
8.36 633
8.38 715
8.4 671
8.42 682
8.44 670
8.46 658
8.48 671
8.5 708
8.52 672
8.54 615
8.56 646
8.58 625
8.6 686
8.62 668
8.64 664
8.66 664
8.68 665
8.7 645
8.72 670
8.74 640
8.76 656
8.78 674
8.8 653
8.82 640
8.84 639
8.86 662
8.88 653
8.9 673
8.92 643
8.94 626
8.96 695
8.98 650
9 680
9.02 656
9.04 706
9.06 710
9.08 676
9.1 723
9.12 684
9.14 720
9.16 748
9.18 743
9.2 692
9.22 726
9.24 741
9.26 804
9.28 862
9.3 807
9.32 889
9.34 898
9.36 1000
9.38 995
9.4 964
9.42 914
9.44 788
9.46 750
9.48 712
9.5 715
9.52 690
9.54 665
9.56 682
9.58 674
9.6 700
9.62 696
9.64 630
9.66 632
9.68 668
9.7 654
9.72 686
9.74 601
9.76 665
9.78 625
9.8 663
9.82 638
9.84 634
9.86 659
9.88 606
9.9 648
9.92 617
9.94 603
9.96 587
9.98 612
10 604
10.02 656
10.04 606
10.06 634
10.08 631
10.1 611
10.12 623
10.14 618
10.16 592
10.18 597
10.2 621
10.22 629
10.24 671
10.26 655
10.28 640
10.3 673
10.32 600
10.34 622
10.36 609
10.38 645
10.4 649
10.42 650
10.44 628
10.46 591
10.48 626
10.5 607
10.52 652
10.54 624
10.56 638
10.58 648
10.6 676
10.62 665
10.64 645
10.66 666
10.68 682
10.7 669
10.72 702
10.74 710
10.76 685
10.78 766
10.8 771
10.82 772
10.84 802
10.86 732
10.88 742
10.9 671
10.92 656
10.94 687
10.96 665
10.98 642
11 627
11.02 619
11.04 633
11.06 641
11.08 629
11.1 657
11.12 626
11.14 587
11.16 607
11.18 622
11.2 604
11.22 642
11.24 604
11.26 608
11.28 569
11.3 590
11.32 626
11.34 641
11.36 560
11.38 564
11.4 579
11.42 623
11.44 595
11.46 569
11.48 583
11.5 575
11.52 581
11.54 603
11.56 584
11.58 568
11.6 618
11.62 640
11.64 595
11.66 639
11.68 601
11.7 645
11.72 601
11.74 614
11.76 630
11.78 619
11.8 616
11.82 634
11.84 601
11.86 571
11.88 611
11.9 629
11.92 633
11.94 631
11.96 610
11.98 634
12 625
12.02 625
12.04 607
12.06 596
12.08 669
12.1 620
12.12 618
12.14 614
12.16 658
12.18 663
12.2 646
12.22 662
12.24 637
12.26 641
12.28 644
12.3 637
12.32 637
12.34 608
12.36 621
12.38 604
12.4 641
12.42 632
12.44 616
12.46 593
12.48 593
12.5 606
12.52 622
12.54 628
12.56 603
12.58 670
12.6 652
12.62 644
12.64 687
12.66 633
12.68 611
12.7 638
12.72 660
12.74 627
12.76 633
12.78 627
12.8 625
12.82 583
12.84 641
12.86 657
12.88 648
12.9 642
12.92 631
12.94 638
12.96 673
12.98 653
13 648
13.02 657
13.04 652
13.06 655
13.08 657
13.1 681
13.12 671
13.14 686
13.16 664
13.18 668
13.2 700
13.22 639
13.24 674
13.26 654
13.28 636
13.3 669
13.32 641
13.34 629
13.36 659
13.38 636
13.4 645
13.42 659
13.44 678
13.46 680
13.48 660
13.5 640
13.52 663
13.54 703
13.56 678
13.58 680
13.6 679
13.62 660
13.64 631
13.66 678
13.68 697
13.7 678
13.72 739
13.74 661
13.76 666
13.78 667
13.8 720
13.82 685
13.84 636
13.86 661
13.88 679
13.9 718
13.92 684
13.94 661
13.96 677
13.98 686
14 669
14.02 700
14.04 668
14.06 697
14.08 699
14.1 672
14.12 684
14.14 738
14.16 718
14.18 715
14.2 715
14.22 694
14.24 728
14.26 717
14.28 714
14.3 731
14.32 736
14.34 769
14.36 728
14.38 720
14.4 777
14.42 661
14.44 740
14.46 680
14.48 650
14.5 705
14.52 766
14.54 716
14.56 718
14.58 665
14.6 756
14.62 717
14.64 708
14.66 744
14.68 754
14.7 730
14.72 712
14.74 741
14.76 707
14.78 714
14.8 764
14.82 739
14.84 770
14.86 719
14.88 729
14.9 722
14.92 740
14.94 761
14.96 808
14.98 729
15 779
15.02 782
15.04 779
15.06 717
15.08 748
15.1 798
15.12 772
15.14 795
15.16 765
15.18 735
15.2 754
15.22 739
15.24 725
15.26 811
15.28 776
15.3 757
15.32 803
15.34 786
15.36 806
15.38 819
15.4 794
15.42 836
15.44 781
15.46 785
15.48 780
15.5 793
15.52 793
15.54 773
15.56 766
15.58 783
15.6 831
15.62 778
15.64 814
15.66 798
15.68 777
15.7 766
15.72 802
15.74 756
15.76 755
15.78 794
15.8 748
15.82 771
15.84 813
15.86 784
15.88 806
15.9 847
15.92 789
15.94 771
15.96 831
15.98 822
16 831
16.02 808
16.04 813
16.06 843
16.08 857
16.1 788
16.12 870
16.14 834
16.16 789
16.18 932
16.2 833
16.22 897
16.24 885
16.26 876
16.28 823
16.3 866
16.32 867
16.34 862
16.36 868
16.38 883
16.4 870
16.42 849
16.44 872
16.46 890
16.48 919
16.5 892
16.52 898
16.54 870
16.56 880
16.58 912
16.6 906
16.62 857
16.64 954
16.66 858
16.68 904
16.7 904
16.72 895
16.74 915
16.76 895
16.78 943
16.8 948
16.82 961
16.84 940
16.86 933
16.88 1048
16.9 1061
16.92 1141
16.94 1133
16.96 1185
16.98 1267
17 1423
17.02 1514
17.04 1533
17.06 1525
17.08 1344
17.1 1248
17.12 1169
17.14 1099
17.16 1048
17.18 961
17.2 1002
17.22 997
17.24 1032
17.26 959
17.28 938
17.3 999
17.32 923
17.34 971
17.36 1022
17.38 964
17.4 981
17.42 969
17.44 947
17.46 996
17.48 1053
17.5 1008
17.52 984
17.54 956
17.56 997
17.58 1001
17.6 972
17.62 1094
17.64 1003
17.66 1046
17.68 1028
17.7 1003
17.72 1028
17.74 989
17.76 1068
17.78 994
17.8 1026
17.82 1075
17.84 1050
17.86 1047
17.88 1061
17.9 1086
17.92 1092
17.94 1099
17.96 1071
17.98 1045
18 1045
18.02 1050
18.04 1065
18.06 1118
18.08 1073
18.1 1033
18.12 1064
18.14 1033
18.16 1079
18.18 1036
18.2 1047
18.22 1086
18.24 1091
18.26 1105
18.28 1086
18.3 1134
18.32 1062
18.34 1061
18.36 1096
18.38 1118
18.4 1137
18.42 1133
18.44 1146
18.46 1164
18.48 1126
18.5 1124
18.52 1109
18.54 1145
18.56 1128
18.58 1152
18.6 1104
18.62 1136
18.64 1084
18.66 1221
18.68 1195
18.7 1210
18.72 1175
18.74 1188
18.76 1132
18.78 1169
18.8 1158
18.82 1146
18.84 1201
18.86 1165
18.88 1165
18.9 1153
18.92 1186
18.94 1166
18.96 1254
18.98 1236
19 1216
19.02 1213
19.04 1223
19.06 1224
19.08 1251
19.1 1284
19.12 1193
19.14 1214
19.16 1210
19.18 1251
19.2 1213
19.22 1257
19.24 1223
19.26 1280
19.28 1270
19.3 1244
19.32 1214
19.34 1336
19.36 1257
19.38 1303
19.4 1297
19.42 1307
19.44 1296
19.46 1396
19.48 1272
19.5 1284
19.52 1266
19.54 1367
19.56 1278
19.58 1313
19.6 1298
19.62 1284
19.64 1280
19.66 1279
19.68 1318
19.7 1289
19.72 1271
19.74 1319
19.76 1300
19.78 1260
19.8 1317
19.82 1313
19.84 1298
19.86 1257
19.88 1338
19.9 1318
19.92 1286
19.94 1367
19.96 1338
19.98 1377
20 1313