File: xrd-UiO-67/pxrddata/35-3.ASC
3 2664
3.02 2571
3.04 2380
3.06 2166
3.08 2171
3.1 2041
3.12 2049
3.14 1953
3.16 1879
3.18 1973
3.2 1899
3.22 1909
3.24 1852
3.26 1731
3.28 1816
3.3 1817
3.32 1709
3.34 1721
3.36 1707
3.38 1644
3.4 1643
3.42 1620
3.44 1652
3.46 1576
3.48 1596
3.5 1483
3.52 1527
3.54 1526
3.56 1544
3.58 1546
3.6 1456
3.62 1452
3.64 1425
3.66 1400
3.68 1352
3.7 1425
3.72 1416
3.74 1332
3.76 1367
3.78 1364
3.8 1385
3.82 1279
3.84 1320
3.86 1274
3.88 1180
3.9 1259
3.92 1249
3.94 1259
3.96 1252
3.98 1238
4 1215
4.02 1248
4.04 1212
4.06 1154
4.08 1215
4.1 1233
4.12 1155
4.14 1208
4.16 1158
4.18 1195
4.2 1106
4.22 1139
4.24 1170
4.26 1064
4.28 1116
4.3 1071
4.32 1062
4.34 1139
4.36 1102
4.38 1064
4.4 1137
4.42 1117
4.44 1056
4.46 1066
4.48 1020
4.5 1064
4.52 1037
4.54 976
4.56 998
4.58 1009
4.6 1028
4.62 1025
4.64 1018
4.66 948
4.68 1046
4.7 1040
4.72 971
4.74 970
4.76 1007
4.78 925
4.8 1024
4.82 1012
4.84 967
4.86 953
4.88 985
4.9 1044
4.92 993
4.94 975
4.96 1033
4.98 1006
5 1039
5.02 993
5.04 1044
5.06 999
5.08 1038
5.1 1050
5.12 1098
5.14 1077
5.16 1073
5.18 1071
5.2 1119
5.22 1154
5.24 1168
5.26 1226
5.28 1243
5.3 1305
5.32 1329
5.34 1438
5.36 1487
5.38 1527
5.4 1710
5.42 1852
5.44 1943
5.46 2142
5.48 2244
5.5 2139
5.52 1883
5.54 1718
5.56 1505
5.58 1278
5.6 1257
5.62 1176
5.64 1174
5.66 1114
5.68 1135
5.7 1094
5.72 1025
5.74 1019
5.76 983
5.78 1003
5.8 961
5.82 926
5.84 900
5.86 897
5.88 919
5.9 887
5.92 837
5.94 830
5.96 825
5.98 845
6 778
6.02 812
6.04 812
6.06 859
6.08 780
6.1 763
6.12 793
6.14 748
6.16 720
6.18 734
6.2 742
6.22 712
6.24 758
6.26 731
6.28 687
6.3 734
6.32 711
6.34 738
6.36 759
6.38 720
6.4 730
6.42 712
6.44 725
6.46 706
6.48 794
6.5 737
6.52 687
6.54 730
6.56 716
6.58 730
6.6 748
6.62 733
6.64 738
6.66 725
6.68 703
6.7 723
6.72 725
6.74 690
6.76 721
6.78 670
6.8 715
6.82 648
6.84 721
6.86 677
6.88 702
6.9 696
6.92 683
6.94 645
6.96 699
6.98 694
7 675
7.02 682
7.04 666
7.06 705
7.08 711
7.1 715
7.12 688
7.14 655
7.16 681
7.18 681
7.2 686
7.22 625
7.24 662
7.26 650
7.28 662
7.3 642
7.32 685
7.34 643
7.36 640
7.38 656
7.4 678
7.42 690
7.44 594
7.46 623
7.48 673
7.5 635
7.52 638
7.54 661
7.56 695
7.58 661
7.6 650
7.62 652
7.64 624
7.66 618
7.68 608
7.7 651
7.72 617
7.74 632
7.76 633
7.78 646
7.8 625
7.82 659
7.84 625
7.86 625
7.88 628
7.9 599
7.92 641
7.94 622
7.96 648
7.98 612
8 638
8.02 617
8.04 631
8.06 617
8.08 619
8.1 622
8.12 638
8.14 636
8.16 649
8.18 602
8.2 622
8.22 612
8.24 661
8.26 610
8.28 619
8.3 594
8.32 607
8.34 627
8.36 613
8.38 615
8.4 599
8.42 611
8.44 650
8.46 660
8.48 614
8.5 607
8.52 587
8.54 598
8.56 640
8.58 621
8.6 593
8.62 625
8.64 608
8.66 620
8.68 624
8.7 624
8.72 615
8.74 613
8.76 596
8.78 592
8.8 614
8.82 587
8.84 623
8.86 629
8.88 621
8.9 626
8.92 624
8.94 602
8.96 629
8.98 606
9 587
9.02 662
9.04 622
9.06 636
9.08 647
9.1 663
9.12 654
9.14 679
9.16 643
9.18 656
9.2 697
9.22 697
9.24 714
9.26 733
9.28 761
9.3 844
9.32 906
9.34 966
9.36 1021
9.38 1044
9.4 1098
9.42 1075
9.44 976
9.46 798
9.48 765
9.5 729
9.52 661
9.54 620
9.56 677
9.58 646
9.6 675
9.62 671
9.64 634
9.66 636
9.68 608
9.7 618
9.72 629
9.74 602
9.76 634
9.78 615
9.8 579
9.82 654
9.84 595
9.86 579
9.88 586
9.9 580
9.92 583
9.94 606
9.96 588
9.98 601
10 582
10.02 569
10.04 626
10.06 601
10.08 625
10.1 616
10.12 603
10.14 604
10.16 598
10.18 585
10.2 606
10.22 602
10.24 596
10.26 578
10.28 614
10.3 559
10.32 600
10.34 588
10.36 545
10.38 576
10.4 582
10.42 586
10.44 590
10.46 585
10.48 588
10.5 549
10.52 608
10.54 607
10.56 645
10.58 612
10.6 624
10.62 647
10.64 609
10.66 609
10.68 627
10.7 624
10.72 690
10.74 693
10.76 687
10.78 789
10.8 827
10.82 789
10.84 804
10.86 839
10.88 829
10.9 736
10.92 704
10.94 690
10.96 725
10.98 686
11 703
11.02 667
11.04 648
11.06 624
11.08 620
11.1 630
11.12 592
11.14 582
11.16 582
11.18 568
11.2 575
11.22 567
11.24 558
11.26 596
11.28 590
11.3 609
11.32 548
11.34 564
11.36 577
11.38 596
11.4 557
11.42 598
11.44 553
11.46 551
11.48 588
11.5 578
11.52 562
11.54 598
11.56 575
11.58 642
11.6 574
11.62 576
11.64 616
11.66 556
11.68 569
11.7 588
11.72 587
11.74 574
11.76 535
11.78 533
11.8 575
11.82 553
11.84 605
11.86 568
11.88 567
11.9 537
11.92 577
11.94 583
11.96 608
11.98 567
12 574
12.02 625
12.04 594
12.06 585
12.08 583
12.1 597
12.12 584
12.14 576
12.16 586
12.18 608
12.2 595
12.22 607
12.24 616
12.26 653
12.28 632
12.3 583
12.32 632
12.34 681
12.36 617
12.38 595
12.4 558
12.42 579
12.44 583
12.46 588
12.48 611
12.5 577
12.52 581
12.54 607
12.56 570
12.58 605
12.6 566
12.62 592
12.64 613
12.66 606
12.68 592
12.7 603
12.72 633
12.74 622
12.76 604
12.78 576
12.8 584
12.82 595
12.84 599
12.86 597
12.88 549
12.9 566
12.92 641
12.94 597
12.96 562
12.98 655
13 596
13.02 636
13.04 596
13.06 617
13.08 563
13.1 617
13.12 640
13.14 613
13.16 605
13.18 603
13.2 586
13.22 638
13.24 615
13.26 636
13.28 604
13.3 636
13.32 617
13.34 622
13.36 593
13.38 649
13.4 606
13.42 657
13.44 601
13.46 618
13.48 639
13.5 601
13.52 640
13.54 655
13.56 608
13.58 676
13.6 637
13.62 636
13.64 626
13.66 600
13.68 606
13.7 678
13.72 630
13.74 637
13.76 602
13.78 644
13.8 656
13.82 627
13.84 662
13.86 648
13.88 600
13.9 632
13.92 663
13.94 640
13.96 618
13.98 668
14 649
14.02 608
14.04 660
14.06 660
14.08 690
14.1 685
14.12 644
14.14 672
14.16 669
14.18 649
14.2 652
14.22 649
14.24 669
14.26 710
14.28 633
14.3 659
14.32 693
14.34 699
14.36 680
14.38 669
14.4 657
14.42 693
14.44 632
14.46 700
14.48 704
14.5 746
14.52 710
14.54 680
14.56 685
14.58 697
14.6 664
14.62 683
14.64 702
14.66 659
14.68 656
14.7 704
14.72 693
14.74 683
14.76 645
14.78 703
14.8 697
14.82 680
14.84 697
14.86 699
14.88 659
14.9 741
14.92 732
14.94 704
14.96 684
14.98 695
15 670
15.02 670
15.04 725
15.06 699
15.08 760
15.1 737
15.12 704
15.14 706
15.16 677
15.18 671
15.2 724
15.22 734
15.24 700
15.26 734
15.28 729
15.3 717
15.32 681
15.34 747
15.36 721
15.38 711
15.4 705
15.42 740
15.44 717
15.46 746
15.48 747
15.5 705
15.52 707
15.54 728
15.56 761
15.58 729
15.6 750
15.62 709
15.64 752
15.66 740
15.68 744
15.7 728
15.72 746
15.74 729
15.76 740
15.78 762
15.8 743
15.82 734
15.84 725
15.86 763
15.88 776
15.9 738
15.92 722
15.94 773
15.96 744
15.98 785
16 744
16.02 741
16.04 805
16.06 733
16.08 800
16.1 750
16.12 802
16.14 801
16.16 812
16.18 758
16.2 820
16.22 840
16.24 759
16.26 811
16.28 774
16.3 751
16.32 811
16.34 798
16.36 792
16.38 827
16.4 872
16.42 815
16.44 866
16.46 781
16.48 827
16.5 841
16.52 858
16.54 798
16.56 784
16.58 840
16.6 825
16.62 872
16.64 829
16.66 861
16.68 809
16.7 877
16.72 866
16.74 842
16.76 897
16.78 859
16.8 873
16.82 847
16.84 902
16.86 909
16.88 944
16.9 971
16.92 998
16.94 1040
16.96 1124
16.98 1149
17 1277
17.02 1352
17.04 1503
17.06 1490
17.08 1394
17.1 1356
17.12 1262
17.14 1105
17.16 1040
17.18 915
17.2 872
17.22 876
17.24 952
17.26 984
17.28 924
17.3 963
17.32 946
17.34 948
17.36 908
17.38 944
17.4 950
17.42 967
17.44 1021
17.46 939
17.48 991
17.5 987
17.52 929
17.54 970
17.56 950
17.58 932
17.6 994
17.62 990
17.64 951
17.66 955
17.68 1024
17.7 1044
17.72 980
17.74 956
17.76 952
17.78 961
17.8 982
17.82 967
17.84 1001
17.86 938
17.88 966
17.9 991
17.92 959
17.94 1002
17.96 980
17.98 994
18 1001
18.02 1058
18.04 1020
18.06 966
18.08 1006
18.1 1034
18.12 1054
18.14 1034
18.16 1007
18.18 1010
18.2 1074
18.22 1021
18.24 1040
18.26 1010
18.28 1054
18.3 1089
18.32 1001
18.34 1077
18.36 1090
18.38 1036
18.4 1043
18.42 1041
18.44 1064
18.46 1100
18.48 1033
18.5 1093
18.52 1082
18.54 1084
18.56 1089
18.58 1112
18.6 1125
18.62 1104
18.64 1157
18.66 1142
18.68 1096
18.7 1139
18.72 1145
18.74 1237
18.76 1113
18.78 1158
18.8 1148
18.82 1144
18.84 1184
18.86 1130
18.88 1146
18.9 1127
18.92 1164
18.94 1153
18.96 1178
18.98 1115
19 1154
19.02 1137
19.04 1176
19.06 1250
19.08 1182
19.1 1224
19.12 1167
19.14 1143
19.16 1222
19.18 1157
19.2 1148
19.22 1198
19.24 1214
19.26 1146
19.28 1181
19.3 1174
19.32 1168
19.34 1231
19.36 1289
19.38 1277
19.4 1299
19.42 1301
19.44 1306
19.46 1280
19.48 1317
19.5 1322
19.52 1351
19.54 1335
19.56 1300
19.58 1315
19.6 1297
19.62 1335
19.64 1300
19.66 1351
19.68 1268
19.7 1245
19.72 1306
19.74 1309
19.76 1300
19.78 1327
19.8 1270
19.82 1311
19.84 1286
19.86 1269
19.88 1269
19.9 1329
19.92 1281
19.94 1372
19.96 1359
19.98 1267
20 1370