File: xrd-UiO-67/pxrddata/35-35.ASC
3 2394
3.02 2289
3.04 2151
3.06 1989
3.08 1951
3.1 1871
3.12 1840
3.14 1873
3.16 1850
3.18 1834
3.2 1776
3.22 1789
3.24 1794
3.26 1681
3.28 1707
3.3 1728
3.32 1759
3.34 1696
3.36 1633
3.38 1700
3.4 1687
3.42 1634
3.44 1689
3.46 1669
3.48 1625
3.5 1638
3.52 1616
3.54 1605
3.56 1640
3.58 1715
3.6 1640
3.62 1653
3.64 1573
3.66 1572
3.68 1654
3.7 1572
3.72 1540
3.74 1630
3.76 1587
3.78 1563
3.8 1557
3.82 1696
3.84 1578
3.86 1564
3.88 1584
3.9 1581
3.92 1609
3.94 1672
3.96 1610
3.98 1565
4 1605
4.02 1638
4.04 1614
4.06 1666
4.08 1650
4.1 1691
4.12 1719
4.14 1655
4.16 1771
4.18 1642
4.2 1737
4.22 1748
4.24 1681
4.26 1731
4.28 1744
4.3 1845
4.32 1773
4.34 1755
4.36 1757
4.38 1834
4.4 1770
4.42 1866
4.44 1884
4.46 1868
4.48 1762
4.5 1828
4.52 1817
4.54 1903
4.56 1945
4.58 1894
4.6 1875
4.62 1916
4.64 1912
4.66 1907
4.68 1932
4.7 1969
4.72 1936
4.74 1966
4.76 1982
4.78 1942
4.8 1885
4.82 1953
4.84 1928
4.86 1966
4.88 2013
4.9 1946
4.92 2018
4.94 1996
4.96 2033
4.98 2009
5 1993
5.02 2077
5.04 2009
5.06 2003
5.08 1998
5.1 2041
5.12 1999
5.14 2030
5.16 1991
5.18 2048
5.2 2036
5.22 2083
5.24 2032
5.26 2117
5.28 2124
5.3 2225
5.32 2166
5.34 2201
5.36 2293
5.38 2342
5.4 2484
5.42 2697
5.44 2600
5.46 2554
5.48 2305
5.5 2087
5.52 2000
5.54 1858
5.56 1945
5.58 1888
5.6 1909
5.62 1848
5.64 1825
5.66 1767
5.68 1706
5.7 1804
5.72 1702
5.74 1653
5.76 1701
5.78 1697
5.8 1648
5.82 1565
5.84 1506
5.86 1440
5.88 1435
5.9 1338
5.92 1358
5.94 1378
5.96 1342
5.98 1319
6 1297
6.02 1275
6.04 1282
6.06 1280
6.08 1224
6.1 1274
6.12 1185
6.14 1249
6.16 1179
6.18 1177
6.2 1190
6.22 1142
6.24 1110
6.26 1095
6.28 1164
6.3 1117
6.32 1144
6.34 1039
6.36 1108
6.38 1057
6.4 1083
6.42 1110
6.44 1070
6.46 1098
6.48 1044
6.5 1117
6.52 1037
6.54 1069
6.56 987
6.58 963
6.6 1048
6.62 989
6.64 1053
6.66 1009
6.68 974
6.7 992
6.72 989
6.74 1000
6.76 1025
6.78 986
6.8 978
6.82 972
6.84 941
6.86 1054
6.88 994
6.9 911
6.92 932
6.94 948
6.96 942
6.98 928
7 919
7.02 960
7.04 942
7.06 957
7.08 897
7.1 887
7.12 894
7.14 933
7.16 877
7.18 907
7.2 921
7.22 880
7.24 936
7.26 910
7.28 945
7.3 885
7.32 852
7.34 891
7.36 904
7.38 872
7.4 873
7.42 896
7.44 865
7.46 915
7.48 888
7.5 874
7.52 899
7.54 915
7.56 888
7.58 873
7.6 901
7.62 859
7.64 894
7.66 911
7.68 897
7.7 850
7.72 879
7.74 903
7.76 873
7.78 821
7.8 849
7.82 845
7.84 913
7.86 855
7.88 875
7.9 898
7.92 846
7.94 831
7.96 822
7.98 883
8 891
8.02 892
8.04 872
8.06 853
8.08 843
8.1 894
8.12 893
8.14 841
8.16 846
8.18 849
8.2 888
8.22 880
8.24 889
8.26 850
8.28 801
8.3 862
8.32 880
8.34 910
8.36 879
8.38 936
8.4 859
8.42 904
8.44 939
8.46 911
8.48 883
8.5 906
8.52 849
8.54 920
8.56 891
8.58 875
8.6 882
8.62 883
8.64 941
8.66 853
8.68 875
8.7 894
8.72 877
8.74 926
8.76 857
8.78 841
8.8 912
8.82 897
8.84 872
8.86 840
8.88 916
8.9 904
8.92 885
8.94 915
8.96 893
8.98 911
9 865
9.02 1001
9.04 926
9.06 924
9.08 945
9.1 941
9.12 974
9.14 965
9.16 960
9.18 998
9.2 1023
9.22 1042
9.24 1053
9.26 1038
9.28 1058
9.3 1175
9.32 1290
9.34 1310
9.36 1309
9.38 1272
9.4 1047
9.42 976
9.44 955
9.46 876
9.48 918
9.5 887
9.52 901
9.54 895
9.56 920
9.58 923
9.6 900
9.62 939
9.64 913
9.66 883
9.68 865
9.7 855
9.72 862
9.74 855
9.76 928
9.78 901
9.8 897
9.82 901
9.84 894
9.86 902
9.88 830
9.9 908
9.92 886
9.94 879
9.96 843
9.98 871
10 919
10.02 874
10.04 873
10.06 903
10.08 873
10.1 913
10.12 922
10.14 870
10.16 885
10.18 916
10.2 922
10.22 893
10.24 858
10.26 850
10.28 904
10.3 882
10.32 869
10.34 861
10.36 910
10.38 910
10.4 933
10.42 846
10.44 855
10.46 889
10.48 911
10.5 883
10.52 925
10.54 883
10.56 856
10.58 883
10.6 904
10.62 912
10.64 936
10.66 982
10.68 946
10.7 981
10.72 1021
10.74 1034
10.76 1058
10.78 944
10.8 1043
10.82 1070
10.84 1024
10.86 999
10.88 957
10.9 1000
10.92 951
10.94 979
10.96 965
10.98 970
11 929
11.02 895
11.04 862
11.06 891
11.08 865
11.1 857
11.12 863
11.14 904
11.16 871
11.18 868
11.2 894
11.22 875
11.24 891
11.26 858
11.28 872
11.3 841
11.32 858
11.34 922
11.36 894
11.38 843
11.4 879
11.42 874
11.44 865
11.46 839
11.48 917
11.5 889
11.52 898
11.54 892
11.56 927
11.58 974
11.6 904
11.62 834
11.64 887
11.66 895
11.68 887
11.7 863
11.72 851
11.74 909
11.76 869
11.78 902
11.8 869
11.82 891
11.84 826
11.86 845
11.88 852
11.9 926
11.92 875
11.94 903
11.96 852
11.98 879
12 906
12.02 921
12.04 894
12.06 920
12.08 847
12.1 880
12.12 870
12.14 885
12.16 925
12.18 914
12.2 918
12.22 932
12.24 895
12.26 892
12.28 943
12.3 907
12.32 907
12.34 909
12.36 904
12.38 906
12.4 885
12.42 921
12.44 943
12.46 895
12.48 879
12.5 902
12.52 910
12.54 857
12.56 849
12.58 879
12.6 903
12.62 879
12.64 913
12.66 896
12.68 933
12.7 904
12.72 975
12.74 989
12.76 941
12.78 943
12.8 957
12.82 941
12.84 939
12.86 952
12.88 924
12.9 907
12.92 943
12.94 914
12.96 948
12.98 908
13 883
13.02 887
13.04 918
13.06 901
13.08 927
13.1 929
13.12 950
13.14 1002
13.16 880
13.18 967
13.2 932
13.22 915
13.24 939
13.26 955
13.28 967
13.3 917
13.32 970
13.34 949
13.36 1003
13.38 978
13.4 962
13.42 928
13.44 941
13.46 889
13.48 920
13.5 933
13.52 929
13.54 913
13.56 944
13.58 959
13.6 961
13.62 948
13.64 913
13.66 922
13.68 918
13.7 901
13.72 938
13.74 921
13.76 937
13.78 942
13.8 902
13.82 1003
13.84 957
13.86 957
13.88 942
13.9 922
13.92 914
13.94 929
13.96 971
13.98 972
14 964
14.02 964
14.04 971
14.06 948
14.08 985
14.1 917
14.12 995
14.14 965
14.16 917
14.18 991
14.2 1010
14.22 1008
14.24 975
14.26 943
14.28 953
14.3 961
14.32 989
14.34 1047
14.36 950
14.38 976
14.4 1008
14.42 1022
14.44 1009
14.46 977
14.48 970
14.5 966
14.52 995
14.54 975
14.56 985
14.58 991
14.6 945
14.62 1004
14.64 907
14.66 978
14.68 953
14.7 986
14.72 979
14.74 929
14.76 1003
14.78 968
14.8 1045
14.82 982
14.84 958
14.86 951
14.88 998
14.9 1033
14.92 1002
14.94 1006
14.96 989
14.98 1036
15 1006
15.02 970
15.04 1053
15.06 995
15.08 1001
15.1 1028
15.12 976
15.14 1015
15.16 1068
15.18 1002
15.2 1009
15.22 989
15.24 1041
15.26 1054
15.28 1024
15.3 1027
15.32 1024
15.34 1043
15.36 1063
15.38 1053
15.4 1037
15.42 1048
15.44 1060
15.46 1086
15.48 1089
15.5 1011
15.52 1027
15.54 1032
15.56 1057
15.58 1034
15.6 1045
15.62 1088
15.64 1097
15.66 1091
15.68 1061
15.7 1094
15.72 1081
15.74 1085
15.76 1097
15.78 1117
15.8 1016
15.82 1110
15.84 1147
15.86 1102
15.88 1102
15.9 1071
15.92 1148
15.94 1158
15.96 1106
15.98 1176
16 1092
16.02 1065
16.04 1105
16.06 1104
16.08 1106
16.1 1126
16.12 1172
16.14 1142
16.16 1117
16.18 1126
16.2 1151
16.22 1126
16.24 1181
16.26 1140
16.28 1175
16.3 1142
16.32 1169
16.34 1198
16.36 1110
16.38 1160
16.4 1152
16.42 1229
16.44 1237
16.46 1175
16.48 1188
16.5 1199
16.52 1162
16.54 1201
16.56 1227
16.58 1226
16.6 1175
16.62 1199
16.64 1204
16.66 1184
16.68 1287
16.7 1236
16.72 1192
16.74 1211
16.76 1275
16.78 1286
16.8 1349
16.82 1435
16.84 1485
16.86 1547
16.88 1555
16.9 1578
16.92 1764
16.94 1969
16.96 2450
16.98 3800
17 4413
17.02 4031
17.04 3368
17.06 2484
17.08 1805
17.1 1384
17.12 1307
17.14 1299
17.16 1337
17.18 1328
17.2 1344
17.22 1301
17.24 1323
17.26 1319
17.28 1289
17.3 1295
17.32 1291
17.34 1315
17.36 1340
17.38 1310
17.4 1325
17.42 1366
17.44 1339
17.46 1419
17.48 1361
17.5 1368
17.52 1382
17.54 1325
17.56 1335
17.58 1282
17.6 1362
17.62 1321
17.64 1363
17.66 1357
17.68 1406
17.7 1381
17.72 1347
17.74 1364
17.76 1421
17.78 1388
17.8 1397
17.82 1374
17.84 1334
17.86 1372
17.88 1434
17.9 1403
17.92 1370
17.94 1332
17.96 1377
17.98 1450
18 1437
18.02 1401
18.04 1424
18.06 1362
18.08 1458
18.1 1472
18.12 1337
18.14 1430
18.16 1481
18.18 1391
18.2 1478
18.22 1494
18.24 1501
18.26 1387
18.28 1410
18.3 1462
18.32 1458
18.34 1385
18.36 1475
18.38 1446
18.4 1493
18.42 1504
18.44 1499
18.46 1461
18.48 1479
18.5 1478
18.52 1531
18.54 1579
18.56 1534
18.58 1452
18.6 1523
18.62 1517
18.64 1547
18.66 1540
18.68 1529
18.7 1514
18.72 1574
18.74 1504
18.76 1558
18.78 1503
18.8 1584
18.82 1552
18.84 1566
18.86 1642
18.88 1506
18.9 1502
18.92 1581
18.94 1515
18.96 1585
18.98 1577
19 1544
19.02 1592
19.04 1630
19.06 1618
19.08 1521
19.1 1665
19.12 1590
19.14 1565
19.16 1620
19.18 1583
19.2 1616
19.22 1623
19.24 1654
19.26 1627
19.28 1615
19.3 1575
19.32 1676
19.34 1633
19.36 1687
19.38 1771
19.4 1643
19.42 1708
19.44 1717
19.46 1723
19.48 1757
19.5 1709
19.52 1744
19.54 1708
19.56 1744
19.58 1788
19.6 1711
19.62 1647
19.64 1683
19.66 1696
19.68 1712
19.7 1720
19.72 1702
19.74 1679
19.76 1746
19.78 1696
19.8 1678
19.82 1731
19.84 1735
19.86 1745
19.88 1753
19.9 1685
19.92 1691
19.94 1685
19.96 1735
19.98 1742
20 1779