File: xrd-UiO-67/pxrddata/35-8-1.ASC
3 3095
3.02 2821
3.04 2685
3.06 2596
3.08 2404
3.1 2438
3.12 2288
3.14 2232
3.16 2238
3.18 2181
3.2 2089
3.22 2105
3.24 2121
3.26 2100
3.28 2131
3.3 2102
3.32 2086
3.34 1989
3.36 1966
3.38 1966
3.4 1925
3.42 1928
3.44 1874
3.46 1841
3.48 1788
3.5 1872
3.52 1772
3.54 1765
3.56 1696
3.58 1799
3.6 1692
3.62 1659
3.64 1650
3.66 1645
3.68 1569
3.7 1571
3.72 1600
3.74 1535
3.76 1515
3.78 1492
3.8 1484
3.82 1505
3.84 1419
3.86 1390
3.88 1495
3.9 1466
3.92 1419
3.94 1424
3.96 1341
3.98 1331
4 1398
4.02 1347
4.04 1335
4.06 1349
4.08 1366
4.1 1300
4.12 1274
4.14 1237
4.16 1250
4.18 1254
4.2 1263
4.22 1188
4.24 1223
4.26 1125
4.28 1145
4.3 1126
4.32 1128
4.34 1152
4.36 1103
4.38 1202
4.4 1112
4.42 1164
4.44 1093
4.46 1138
4.48 1113
4.5 1185
4.52 1045
4.54 1130
4.56 1068
4.58 1136
4.6 1097
4.62 1130
4.64 1155
4.66 1086
4.68 1109
4.7 1070
4.72 1069
4.74 1090
4.76 1180
4.78 1128
4.8 1126
4.82 1078
4.84 1116
4.86 1103
4.88 1127
4.9 1084
4.92 1066
4.94 1088
4.96 1153
4.98 1204
5 1210
5.02 1227
5.04 1185
5.06 1210
5.08 1267
5.1 1347
5.12 1366
5.14 1407
5.16 1480
5.18 1476
5.2 1585
5.22 1611
5.24 1700
5.26 1905
5.28 1925
5.3 2061
5.32 2117
5.34 2360
5.36 2591
5.38 2907
5.4 3357
5.42 3778
5.44 4001
5.46 3971
5.48 3461
5.5 2976
5.52 2620
5.54 2351
5.56 2305
5.58 2070
5.6 1957
5.62 1884
5.64 1779
5.66 1761
5.68 1641
5.7 1621
5.72 1594
5.74 1573
5.76 1464
5.78 1438
5.8 1422
5.82 1345
5.84 1221
5.86 1276
5.88 1173
5.9 1098
5.92 1073
5.94 1073
5.96 1056
5.98 1025
6 927
6.02 938
6.04 932
6.06 905
6.08 836
6.1 914
6.12 839
6.14 841
6.16 864
6.18 863
6.2 824
6.22 797
6.24 774
6.26 816
6.28 805
6.3 815
6.32 774
6.34 812
6.36 807
6.38 756
6.4 790
6.42 781
6.44 813
6.46 792
6.48 802
6.5 813
6.52 774
6.54 797
6.56 813
6.58 755
6.6 792
6.62 739
6.64 767
6.66 787
6.68 772
6.7 789
6.72 780
6.74 763
6.76 756
6.78 716
6.8 724
6.82 788
6.84 771
6.86 771
6.88 707
6.9 771
6.92 693
6.94 776
6.96 730
6.98 719
7 723
7.02 706
7.04 714
7.06 689
7.08 747
7.1 717
7.12 663
7.14 703
7.16 739
7.18 732
7.2 669
7.22 710
7.24 693
7.26 687
7.28 711
7.3 717
7.32 699
7.34 674
7.36 687
7.38 731
7.4 692
7.42 676
7.44 666
7.46 692
7.48 701
7.5 696
7.52 670
7.54 718
7.56 675
7.58 714
7.6 672
7.62 667
7.64 682
7.66 672
7.68 671
7.7 675
7.72 688
7.74 698
7.76 699
7.78 686
7.8 694
7.82 697
7.84 665
7.86 656
7.88 645
7.9 698
7.92 686
7.94 697
7.96 657
7.98 709
8 685
8.02 697
8.04 673
8.06 674
8.08 677
8.1 690
8.12 672
8.14 668
8.16 707
8.18 695
8.2 672
8.22 669
8.24 667
8.26 657
8.28 695
8.3 725
8.32 702
8.34 695
8.36 673
8.38 670
8.4 685
8.42 673
8.44 667
8.46 656
8.48 664
8.5 682
8.52 639
8.54 687
8.56 688
8.58 624
8.6 651
8.62 675
8.64 688
8.66 685
8.68 701
8.7 659
8.72 649
8.74 642
8.76 717
8.78 655
8.8 703
8.82 665
8.84 700
8.86 667
8.88 634
8.9 689
8.92 677
8.94 710
8.96 697
8.98 706
9 703
9.02 741
9.04 747
9.06 765
9.08 768
9.1 774
9.12 787
9.14 836
9.16 846
9.18 855
9.2 928
9.22 949
9.24 1001
9.26 999
9.28 1147
9.3 1241
9.32 1434
9.34 1697
9.36 1602
9.38 1629
9.4 1371
9.42 1097
9.44 1011
9.46 892
9.48 887
9.5 798
9.52 722
9.54 725
9.56 752
9.58 712
9.6 731
9.62 681
9.64 695
9.66 687
9.68 707
9.7 717
9.72 702
9.74 693
9.76 698
9.78 665
9.8 697
9.82 691
9.84 682
9.86 699
9.88 698
9.9 736
9.92 680
9.94 692
9.96 681
9.98 728
10 690
10.02 710
10.04 682
10.06 672
10.08 678
10.1 728
10.12 698
10.14 693
10.16 744
10.18 711
10.2 691
10.22 698
10.24 687
10.26 691
10.28 690
10.3 679
10.32 733
10.34 696
10.36 688
10.38 716
10.4 670
10.42 686
10.44 694
10.46 650
10.48 711
10.5 676
10.52 733
10.54 725
10.56 779
10.58 719
10.6 722
10.62 777
10.64 767
10.66 878
10.68 823
10.7 895
10.72 888
10.74 979
10.76 1057
10.78 1172
10.8 1155
10.82 1185
10.84 1096
10.86 1042
10.88 1014
10.9 1005
10.92 996
10.94 951
10.96 904
10.98 854
11 855
11.02 787
11.04 836
11.06 782
11.08 747
11.1 762
11.12 705
11.14 731
11.16 688
11.18 673
11.2 765
11.22 709
11.24 674
11.26 657
11.28 687
11.3 668
11.32 673
11.34 645
11.36 688
11.38 701
11.4 723
11.42 674
11.44 686
11.46 720
11.48 693
11.5 692
11.52 714
11.54 681
11.56 716
11.58 666
11.6 700
11.62 692
11.64 681
11.66 699
11.68 670
11.7 646
11.72 718
11.74 679
11.76 704
11.78 666
11.8 704
11.82 683
11.84 673
11.86 687
11.88 756
11.9 695
11.92 683
11.94 702
11.96 702
11.98 706
12 736
12.02 679
12.04 726
12.06 692
12.08 726
12.1 733
12.12 698
12.14 710
12.16 733
12.18 708
12.2 756
12.22 727
12.24 780
12.26 733
12.28 731
12.3 781
12.32 720
12.34 708
12.36 734
12.38 780
12.4 734
12.42 721
12.44 778
12.46 736
12.48 718
12.5 732
12.52 705
12.54 694
12.56 698
12.58 723
12.6 722
12.62 760
12.64 757
12.66 748
12.68 749
12.7 756
12.72 708
12.74 763
12.76 709
12.78 754
12.8 711
12.82 750
12.84 740
12.86 750
12.88 770
12.9 755
12.92 697
12.94 723
12.96 721
12.98 739
13 761
13.02 739
13.04 708
13.06 728
13.08 687
13.1 784
13.12 741
13.14 707
13.16 730
13.18 747
13.2 739
13.22 740
13.24 734
13.26 784
13.28 751
13.3 708
13.32 767
13.34 759
13.36 753
13.38 742
13.4 785
13.42 745
13.44 758
13.46 759
13.48 780
13.5 771
13.52 773
13.54 814
13.56 708
13.58 738
13.6 779
13.62 806
13.64 745
13.66 710
13.68 702
13.7 769
13.72 740
13.74 786
13.76 703
13.78 771
13.8 743
13.82 818
13.84 723
13.86 804
13.88 752
13.9 783
13.92 812
13.94 792
13.96 793
13.98 791
14 740
14.02 806
14.04 782
14.06 749
14.08 801
14.1 811
14.12 787
14.14 826
14.16 809
14.18 820
14.2 813
14.22 831
14.24 842
14.26 918
14.28 903
14.3 819
14.32 867
14.34 824
14.36 868
14.38 914
14.4 880
14.42 842
14.44 888
14.46 790
14.48 810
14.5 851
14.52 828
14.54 843
14.56 781
14.58 831
14.6 914
14.62 803
14.64 823
14.66 831
14.68 793
14.7 842
14.72 859
14.74 853
14.76 855
14.78 841
14.8 851
14.82 875
14.84 906
14.86 904
14.88 864
14.9 866
14.92 853
14.94 847
14.96 891
14.98 901
15 895
15.02 857
15.04 878
15.06 858
15.08 855
15.1 893
15.12 855
15.14 911
15.16 887
15.18 868
15.2 889
15.22 872
15.24 875
15.26 854
15.28 850
15.3 862
15.32 866
15.34 897
15.36 931
15.38 854
15.4 909
15.42 856
15.44 953
15.46 962
15.48 949
15.5 894
15.52 929
15.54 914
15.56 906
15.58 895
15.6 926
15.62 971
15.64 959
15.66 914
15.68 984
15.7 959
15.72 973
15.74 918
15.76 933
15.78 918
15.8 940
15.82 947
15.84 965
15.86 927
15.88 992
15.9 942
15.92 937
15.94 1000
15.96 955
15.98 938
16 957
16.02 1006
16.04 947
16.06 965
16.08 1055
16.1 1051
16.12 996
16.14 1039
16.16 1000
16.18 999
16.2 1007
16.22 1023
16.24 1008
16.26 984
16.28 1007
16.3 1063
16.32 1029
16.34 1074
16.36 1021
16.38 1107
16.4 1014
16.42 1040
16.44 1029
16.46 1093
16.48 1067
16.5 1015
16.52 1073
16.54 1090
16.56 1063
16.58 1078
16.6 1123
16.62 1126
16.64 1113
16.66 1092
16.68 1089
16.7 1091
16.72 1113
16.74 1111
16.76 1100
16.78 1157
16.8 1156
16.82 1181
16.84 1126
16.86 1165
16.88 1221
16.9 1179
16.92 1230
16.94 1294
16.96 1325
16.98 1389
17 1448
17.02 1475
17.04 1451
17.06 1399
17.08 1305
17.1 1208
17.12 1212
17.14 1201
17.16 1178
17.18 1173
17.2 1177
17.22 1190
17.24 1137
17.26 1236
17.28 1184
17.3 1204
17.32 1211
17.34 1291
17.36 1267
17.38 1230
17.4 1238
17.42 1215
17.44 1265
17.46 1234
17.48 1206
17.5 1186
17.52 1163
17.54 1259
17.56 1193
17.58 1280
17.6 1304
17.62 1244
17.64 1231
17.66 1215
17.68 1256
17.7 1243
17.72 1210
17.74 1321
17.76 1282
17.78 1268
17.8 1246
17.82 1269
17.84 1287
17.86 1310
17.88 1243
17.9 1296
17.92 1263
17.94 1317
17.96 1315
17.98 1274
18 1233
18.02 1309
18.04 1340
18.06 1283
18.08 1254
18.1 1348
18.12 1289
18.14 1399
18.16 1395
18.18 1357
18.2 1320
18.22 1365
18.24 1395
18.26 1327
18.28 1410
18.3 1414
18.32 1347
18.34 1340
18.36 1415
18.38 1387
18.4 1354
18.42 1358
18.44 1385
18.46 1359
18.48 1401
18.5 1384
18.52 1405
18.54 1424
18.56 1437
18.58 1474
18.6 1408
18.62 1500
18.64 1440
18.66 1489
18.68 1556
18.7 1515
18.72 1496
18.74 1513
18.76 1528
18.78 1499
18.8 1460
18.82 1563
18.84 1509
18.86 1433
18.88 1496
18.9 1513
18.92 1518
18.94 1519
18.96 1434
18.98 1502
19 1518
19.02 1533
19.04 1492
19.06 1512
19.08 1555
19.1 1550
19.12 1568
19.14 1608
19.16 1545
19.18 1573
19.2 1569
19.22 1512
19.24 1567
19.26 1640
19.28 1536
19.3 1553
19.32 1567
19.34 1647
19.36 1691
19.38 1666
19.4 1582
19.42 1749
19.44 1690
19.46 1779
19.48 1789
19.5 1787
19.52 1802
19.54 1797
19.56 1767
19.58 1830
19.6 1757
19.62 1793
19.64 1705
19.66 1653
19.68 1680
19.7 1634
19.72 1604
19.74 1666
19.76 1740
19.78 1709
19.8 1717
19.82 1661
19.84 1746
19.86 1647
19.88 1660
19.9 1717
19.92 1658
19.94 1661
19.96 1733
19.98 1759
20 1732