File: xrd-UiO-67/pxrddata/35-9.ASC
3 3040
3.02 2943
3.04 2697
3.06 2685
3.08 2596
3.1 2462
3.12 2388
3.14 2289
3.16 2378
3.18 2252
3.2 2199
3.22 2214
3.24 2081
3.26 2184
3.28 2038
3.3 2080
3.32 2070
3.34 2028
3.36 1985
3.38 1990
3.4 1957
3.42 1867
3.44 1868
3.46 1822
3.48 1847
3.5 1879
3.52 1790
3.54 1830
3.56 1741
3.58 1797
3.6 1714
3.62 1719
3.64 1758
3.66 1659
3.68 1651
3.7 1594
3.72 1617
3.74 1631
3.76 1568
3.78 1630
3.8 1540
3.82 1448
3.84 1476
3.86 1448
3.88 1480
3.9 1506
3.92 1423
3.94 1434
3.96 1433
3.98 1360
4 1289
4.02 1370
4.04 1387
4.06 1297
4.08 1239
4.1 1319
4.12 1278
4.14 1257
4.16 1327
4.18 1210
4.2 1239
4.22 1222
4.24 1250
4.26 1169
4.28 1206
4.3 1153
4.32 1188
4.34 1226
4.36 1137
4.38 1148
4.4 1148
4.42 1151
4.44 1131
4.46 1109
4.48 1138
4.5 1048
4.52 1087
4.54 1049
4.56 1053
4.58 1054
4.6 1102
4.62 1039
4.64 1077
4.66 1060
4.68 1075
4.7 1047
4.72 1086
4.74 1088
4.76 1042
4.78 1046
4.8 970
4.82 1022
4.84 1065
4.86 1056
4.88 1068
4.9 1033
4.92 1011
4.94 1068
4.96 1052
4.98 1092
5 1024
5.02 1023
5.04 1011
5.06 1093
5.08 1109
5.1 1118
5.12 1135
5.14 1144
5.16 1140
5.18 1206
5.2 1218
5.22 1279
5.24 1323
5.26 1303
5.28 1407
5.3 1450
5.32 1477
5.34 1567
5.36 1714
5.38 1900
5.4 2125
5.42 2335
5.44 2369
5.46 2386
5.48 2288
5.5 2057
5.52 1752
5.54 1536
5.56 1362
5.58 1276
5.6 1136
5.62 1224
5.64 1090
5.66 1016
5.68 998
5.7 975
5.72 967
5.74 899
5.76 881
5.78 898
5.8 921
5.82 850
5.84 905
5.86 852
5.88 821
5.9 838
5.92 793
5.94 806
5.96 850
5.98 746
6 765
6.02 772
6.04 756
6.06 797
6.08 794
6.1 766
6.12 740
6.14 719
6.16 746
6.18 770
6.2 761
6.22 772
6.24 710
6.26 736
6.28 741
6.3 709
6.32 710
6.34 702
6.36 674
6.38 685
6.4 751
6.42 695
6.44 700
6.46 696
6.48 755
6.5 701
6.52 730
6.54 692
6.56 694
6.58 677
6.6 710
6.62 686
6.64 704
6.66 669
6.68 707
6.7 663
6.72 676
6.74 664
6.76 696
6.78 687
6.8 667
6.82 657
6.84 683
6.86 646
6.88 675
6.9 677
6.92 658
6.94 691
6.96 702
6.98 671
7 689
7.02 656
7.04 652
7.06 714
7.08 661
7.1 619
7.12 664
7.14 636
7.16 608
7.18 680
7.2 681
7.22 646
7.24 632
7.26 625
7.28 679
7.3 653
7.32 631
7.34 645
7.36 643
7.38 637
7.4 605
7.42 656
7.44 628
7.46 628
7.48 647
7.5 650
7.52 623
7.54 594
7.56 625
7.58 645
7.6 634
7.62 627
7.64 637
7.66 643
7.68 667
7.7 636
7.72 655
7.74 654
7.76 651
7.78 632
7.8 603
7.82 658
7.84 628
7.86 626
7.88 639
7.9 672
7.92 590
7.94 604
7.96 627
7.98 620
8 626
8.02 605
8.04 582
8.06 648
8.08 619
8.1 620
8.12 621
8.14 615
8.16 632
8.18 611
8.2 615
8.22 604
8.24 576
8.26 610
8.28 608
8.3 588
8.32 604
8.34 658
8.36 626
8.38 603
8.4 644
8.42 608
8.44 563
8.46 572
8.48 637
8.5 635
8.52 611
8.54 592
8.56 633
8.58 611
8.6 580
8.62 593
8.64 596
8.66 576
8.68 615
8.7 630
8.72 604
8.74 605
8.76 567
8.78 598
8.8 598
8.82 601
8.84 660
8.86 621
8.88 633
8.9 637
8.92 628
8.94 593
8.96 636
8.98 643
9 591
9.02 622
9.04 607
9.06 653
9.08 615
9.1 648
9.12 659
9.14 667
9.16 686
9.18 664
9.2 723
9.22 751
9.24 773
9.26 817
9.28 847
9.3 933
9.32 1046
9.34 1074
9.36 1103
9.38 1091
9.4 1064
9.42 925
9.44 815
9.46 777
9.48 747
9.5 687
9.52 619
9.54 637
9.56 616
9.58 603
9.6 652
9.62 604
9.64 607
9.66 621
9.68 559
9.7 631
9.72 599
9.74 625
9.76 620
9.78 612
9.8 623
9.82 536
9.84 610
9.86 599
9.88 659
9.9 592
9.92 595
9.94 598
9.96 563
9.98 593
10 577
10.02 566
10.04 606
10.06 569
10.08 589
10.1 612
10.12 634
10.14 547
10.16 578
10.18 597
10.2 639
10.22 591
10.24 599
10.26 561
10.28 615
10.3 613
10.32 585
10.34 617
10.36 612
10.38 572
10.4 621
10.42 615
10.44 569
10.46 648
10.48 587
10.5 625
10.52 615
10.54 560
10.56 653
10.58 628
10.6 620
10.62 632
10.64 618
10.66 619
10.68 665
10.7 708
10.72 690
10.74 722
10.76 833
10.78 831
10.8 827
10.82 825
10.84 829
10.86 760
10.88 715
10.9 748
10.92 698
10.94 658
10.96 676
10.98 655
11 592
11.02 626
11.04 601
11.06 647
11.08 624
11.1 615
11.12 609
11.14 572
11.16 654
11.18 598
11.2 558
11.22 609
11.24 584
11.26 550
11.28 564
11.3 574
11.32 588
11.34 575
11.36 616
11.38 577
11.4 571
11.42 587
11.44 541
11.46 577
11.48 572
11.5 588
11.52 555
11.54 586
11.56 582
11.58 592
11.6 567
11.62 611
11.64 549
11.66 593
11.68 597
11.7 613
11.72 569
11.74 584
11.76 582
11.78 640
11.8 583
11.82 572
11.84 570
11.86 585
11.88 562
11.9 571
11.92 612
11.94 589
11.96 588
11.98 543
12 569
12.02 617
12.04 594
12.06 596
12.08 593
12.1 582
12.12 598
12.14 642
12.16 569
12.18 598
12.2 639
12.22 592
12.24 655
12.26 637
12.28 599
12.3 656
12.32 598
12.34 562
12.36 589
12.38 592
12.4 613
12.42 593
12.44 660
12.46 609
12.48 597
12.5 590
12.52 581
12.54 641
12.56 580
12.58 561
12.6 577
12.62 590
12.64 584
12.66 553
12.68 616
12.7 601
12.72 595
12.74 593
12.76 596
12.78 587
12.8 603
12.82 585
12.84 596
12.86 596
12.88 627
12.9 632
12.92 642
12.94 615
12.96 608
12.98 629
13 616
13.02 598
13.04 618
13.06 663
13.08 599
13.1 627
13.12 616
13.14 621
13.16 642
13.18 650
13.2 607
13.22 577
13.24 632
13.26 651
13.28 639
13.3 669
13.32 637
13.34 612
13.36 606
13.38 654
13.4 625
13.42 653
13.44 618
13.46 617
13.48 636
13.5 665
13.52 655
13.54 629
13.56 634
13.58 611
13.6 635
13.62 612
13.64 627
13.66 642
13.68 646
13.7 664
13.72 669
13.74 633
13.76 662
13.78 638
13.8 672
13.82 592
13.84 674
13.86 672
13.88 662
13.9 618
13.92 623
13.94 648
13.96 628
13.98 626
14 685
14.02 607
14.04 676
14.06 646
14.08 665
14.1 657
14.12 699
14.14 702
14.16 688
14.18 649
14.2 675
14.22 639
14.24 679
14.26 673
14.28 693
14.3 699
14.32 712
14.34 685
14.36 691
14.38 678
14.4 706
14.42 694
14.44 699
14.46 677
14.48 683
14.5 683
14.52 677
14.54 691
14.56 660
14.58 717
14.6 661
14.62 692
14.64 692
14.66 702
14.68 647
14.7 687
14.72 692
14.74 692
14.76 655
14.78 683
14.8 630
14.82 709
14.84 684
14.86 693
14.88 728
14.9 703
14.92 679
14.94 682
14.96 677
14.98 719
15 675
15.02 686
15.04 703
15.06 700
15.08 692
15.1 662
15.12 700
15.14 686
15.16 718
15.18 752
15.2 666
15.22 716
15.24 659
15.26 743
15.28 711
15.3 745
15.32 682
15.34 721
15.36 735
15.38 770
15.4 691
15.42 771
15.44 782
15.46 703
15.48 710
15.5 780
15.52 747
15.54 734
15.56 758
15.58 713
15.6 764
15.62 736
15.64 779
15.66 795
15.68 761
15.7 732
15.72 792
15.74 797
15.76 763
15.78 763
15.8 729
15.82 795
15.84 787
15.86 785
15.88 780
15.9 784
15.92 794
15.94 770
15.96 769
15.98 799
16 771
16.02 781
16.04 814
16.06 774
16.08 808
16.1 789
16.12 818
16.14 795
16.16 807
16.18 838
16.2 865
16.22 825
16.24 846
16.26 787
16.28 814
16.3 774
16.32 789
16.34 824
16.36 829
16.38 810
16.4 837
16.42 827
16.44 816
16.46 866
16.48 861
16.5 842
16.52 873
16.54 869
16.56 835
16.58 864
16.6 843
16.62 881
16.64 861
16.66 833
16.68 851
16.7 887
16.72 839
16.74 868
16.76 868
16.78 904
16.8 890
16.82 912
16.84 931
16.86 942
16.88 1011
16.9 1013
16.92 1044
16.94 1155
16.96 1174
16.98 1256
17 1343
17.02 1360
17.04 1392
17.06 1337
17.08 1291
17.1 1139
17.12 1119
17.14 1020
17.16 990
17.18 981
17.2 985
17.22 975
17.24 957
17.26 929
17.28 963
17.3 896
17.32 952
17.34 897
17.36 961
17.38 1027
17.4 950
17.42 938
17.44 978
17.46 961
17.48 968
17.5 1004
17.52 967
17.54 957
17.56 981
17.58 986
17.6 999
17.62 969
17.64 1016
17.66 943
17.68 1010
17.7 1018
17.72 986
17.74 1072
17.76 981
17.78 989
17.8 1015
17.82 984
17.84 1014
17.86 970
17.88 1003
17.9 1019
17.92 998
17.94 938
17.96 1012
17.98 1011
18 1011
18.02 1012
18.04 1052
18.06 1034
18.08 1016
18.1 1060
18.12 1009
18.14 1045
18.16 990
18.18 1016
18.2 976
18.22 1007
18.24 1044
18.26 1016
18.28 991
18.3 1027
18.32 1035
18.34 1054
18.36 1021
18.38 1060
18.4 1066
18.42 1040
18.44 1113
18.46 1137
18.48 1096
18.5 1122
18.52 1061
18.54 1142
18.56 1107
18.58 1106
18.6 1085
18.62 1126
18.64 1137
18.66 1097
18.68 1150
18.7 1166
18.72 1095
18.74 1153
18.76 1147
18.78 1121
18.8 1172
18.82 1172
18.84 1110
18.86 1143
18.88 1125
18.9 1161
18.92 1169
18.94 1137
18.96 1154
18.98 1189
19 1168
19.02 1116
19.04 1177
19.06 1100
19.08 1122
19.1 1174
19.12 1230
19.14 1156
19.16 1235
19.18 1225
19.2 1199
19.22 1192
19.24 1209
19.26 1264
19.28 1206
19.3 1174
19.32 1211
19.34 1199
19.36 1263
19.38 1321
19.4 1281
19.42 1314
19.44 1299
19.46 1372
19.48 1386
19.5 1339
19.52 1365
19.54 1324
19.56 1324
19.58 1322
19.6 1265
19.62 1290
19.64 1216
19.66 1299
19.68 1276
19.7 1247
19.72 1227
19.74 1337
19.76 1318
19.78 1235
19.8 1248
19.82 1286
19.84 1303
19.86 1304
19.88 1256
19.9 1355
19.92 1325
19.94 1237
19.96 1321
19.98 1278
20 1315