File: xrd-UiO-67/pxrddata/36-18.ASC
3 1835
3.02 1780
3.04 1763
3.06 1674
3.08 1692
3.1 1632
3.12 1569
3.14 1570
3.16 1552
3.18 1529
3.2 1499
3.22 1557
3.24 1549
3.26 1548
3.28 1512
3.3 1500
3.32 1572
3.34 1407
3.36 1327
3.38 1447
3.4 1421
3.42 1468
3.44 1453
3.46 1367
3.48 1393
3.5 1357
3.52 1316
3.54 1342
3.56 1335
3.58 1314
3.6 1335
3.62 1329
3.64 1230
3.66 1268
3.68 1301
3.7 1328
3.72 1270
3.74 1351
3.76 1220
3.78 1193
3.8 1129
3.82 1193
3.84 1249
3.86 1187
3.88 1174
3.9 1153
3.92 1162
3.94 1124
3.96 1169
3.98 1162
4 1141
4.02 1206
4.04 1213
4.06 1100
4.08 1095
4.1 1143
4.12 1125
4.14 1084
4.16 1011
4.18 1060
4.2 1062
4.22 1102
4.24 1044
4.26 1089
4.28 1043
4.3 1045
4.32 989
4.34 1022
4.36 1057
4.38 1033
4.4 960
4.42 957
4.44 969
4.46 994
4.48 971
4.5 911
4.52 967
4.54 973
4.56 959
4.58 961
4.6 921
4.62 938
4.64 906
4.66 923
4.68 911
4.7 891
4.72 932
4.74 900
4.76 845
4.78 875
4.8 915
4.82 875
4.84 837
4.86 873
4.88 856
4.9 827
4.92 870
4.94 824
4.96 858
4.98 822
5 872
5.02 821
5.04 795
5.06 800
5.08 819
5.1 804
5.12 812
5.14 804
5.16 806
5.18 788
5.2 823
5.22 816
5.24 754
5.26 736
5.28 815
5.3 749
5.32 741
5.34 760
5.36 762
5.38 774
5.4 735
5.42 757
5.44 690
5.46 731
5.48 738
5.5 712
5.52 731
5.54 773
5.56 735
5.58 737
5.6 743
5.62 712
5.64 688
5.66 708
5.68 725
5.7 686
5.72 764
5.74 770
5.76 713
5.78 735
5.8 735
5.82 734
5.84 718
5.86 663
5.88 697
5.9 675
5.92 662
5.94 683
5.96 636
5.98 659
6 631
6.02 653
6.04 653
6.06 662
6.08 614
6.1 672
6.12 671
6.14 636
6.16 666
6.18 642
6.2 646
6.22 643
6.24 649
6.26 631
6.28 653
6.3 629
6.32 595
6.34 652
6.36 649
6.38 625
6.4 666
6.42 627
6.44 651
6.46 638
6.48 637
6.5 613
6.52 626
6.54 661
6.56 628
6.58 656
6.6 585
6.62 644
6.64 610
6.66 677
6.68 653
6.7 619
6.72 626
6.74 645
6.76 618
6.78 606
6.8 651
6.82 648
6.84 627
6.86 626
6.88 642
6.9 630
6.92 612
6.94 626
6.96 649
6.98 641
7 590
7.02 611
7.04 598
7.06 608
7.08 603
7.1 623
7.12 618
7.14 567
7.16 573
7.18 619
7.2 575
7.22 608
7.24 616
7.26 630
7.28 623
7.3 597
7.32 626
7.34 584
7.36 590
7.38 576
7.4 614
7.42 580
7.44 639
7.46 620
7.48 616
7.5 578
7.52 647
7.54 598
7.56 657
7.58 574
7.6 595
7.62 585
7.64 580
7.66 616
7.68 605
7.7 559
7.72 555
7.74 597
7.76 589
7.78 580
7.8 640
7.82 587
7.84 617
7.86 583
7.88 572
7.9 616
7.92 593
7.94 572
7.96 610
7.98 574
8 587
8.02 571
8.04 581
8.06 590
8.08 596
8.1 563
8.12 579
8.14 599
8.16 518
8.18 564
8.2 607
8.22 630
8.24 617
8.26 561
8.28 556
8.3 552
8.32 585
8.34 560
8.36 540
8.38 565
8.4 547
8.42 603
8.44 583
8.46 547
8.48 565
8.5 542
8.52 540
8.54 496
8.56 551
8.58 571
8.6 574
8.62 542
8.64 564
8.66 540
8.68 577
8.7 535
8.72 583
8.74 531
8.76 565
8.78 543
8.8 532
8.82 523
8.84 523
8.86 560
8.88 543
8.9 555
8.92 516
8.94 525
8.96 531
8.98 524
9 538
9.02 561
9.04 552
9.06 591
9.08 563
9.1 562
9.12 532
9.14 574
9.16 546
9.18 528
9.2 579
9.22 565
9.24 545
9.26 535
9.28 508
9.3 559
9.32 531
9.34 536
9.36 501
9.38 553
9.4 524
9.42 495
9.44 548
9.46 531
9.48 565
9.5 551
9.52 555
9.54 502
9.56 553
9.58 570
9.6 549
9.62 544
9.64 517
9.66 569
9.68 497
9.7 529
9.72 508
9.74 550
9.76 535
9.78 564
9.8 515
9.82 524
9.84 517
9.86 539
9.88 553
9.9 501
9.92 559
9.94 554
9.96 529
9.98 520
10 530
10.02 528
10.04 549
10.06 517
10.08 544
10.1 510
10.12 575
10.14 557
10.16 527
10.18 520
10.2 524
10.22 536
10.24 542
10.26 488
10.28 474
10.3 522
10.32 499
10.34 540
10.36 549
10.38 539
10.4 569
10.42 538
10.44 508
10.46 516
10.48 542
10.5 524
10.52 554
10.54 536
10.56 521
10.58 497
10.6 518
10.62 520
10.64 539
10.66 557
10.68 545
10.7 543
10.72 505
10.74 553
10.76 536
10.78 513
10.8 542
10.82 509
10.84 518
10.86 510
10.88 539
10.9 493
10.92 535
10.94 529
10.96 499
10.98 495
11 530
11.02 558
11.04 498
11.06 537
11.08 524
11.1 500
11.12 556
11.14 516
11.16 499
11.18 513
11.2 523
11.22 482
11.24 508
11.26 534
11.28 576
11.3 496
11.32 571
11.34 531
11.36 559
11.38 546
11.4 544
11.42 516
11.44 504
11.46 552
11.48 514
11.5 545
11.52 538
11.54 518
11.56 526
11.58 547
11.6 589
11.62 544
11.64 557
11.66 507
11.68 479
11.7 533
11.72 520
11.74 566
11.76 515
11.78 497
11.8 543
11.82 490
11.84 517
11.86 523
11.88 509
11.9 539
11.92 524
11.94 571
11.96 526
11.98 540
12 548
12.02 569
12.04 512
12.06 539
12.08 553
12.1 533
12.12 532
12.14 571
12.16 544
12.18 511
12.2 517
12.22 542
12.24 501
12.26 510
12.28 562
12.3 539
12.32 547
12.34 532
12.36 562
12.38 570
12.4 575
12.42 543
12.44 528
12.46 537
12.48 540
12.5 546
12.52 568
12.54 541
12.56 542
12.58 533
12.6 522
12.62 497
12.64 545
12.66 567
12.68 522
12.7 541
12.72 551
12.74 542
12.76 584
12.78 523
12.8 568
12.82 539
12.84 505
12.86 544
12.88 575
12.9 553
12.92 562
12.94 570
12.96 521
12.98 561
13 560
13.02 560
13.04 619
13.06 568
13.08 527
13.1 560
13.12 590
13.14 559
13.16 579
13.18 569
13.2 568
13.22 575
13.24 594
13.26 585
13.28 608
13.3 614
13.32 636
13.34 608
13.36 545
13.38 609
13.4 576
13.42 598
13.44 639
13.46 602
13.48 583
13.5 563
13.52 582
13.54 611
13.56 566
13.58 568
13.6 612
13.62 577
13.64 646
13.66 591
13.68 607
13.7 533
13.72 573
13.74 579
13.76 624
13.78 583
13.8 582
13.82 604
13.84 579
13.86 609
13.88 610
13.9 641
13.92 614
13.94 607
13.96 603
13.98 605
14 632
14.02 592
14.04 580
14.06 584
14.08 598
14.1 613
14.12 607
14.14 614
14.16 618
14.18 589
14.2 585
14.22 580
14.24 623
14.26 617
14.28 615
14.3 634
14.32 599
14.34 595
14.36 596
14.38 598
14.4 609
14.42 639
14.44 603
14.46 627
14.48 593
14.5 611
14.52 601
14.54 634
14.56 680
14.58 626
14.6 611
14.62 635
14.64 617
14.66 678
14.68 649
14.7 651
14.72 665
14.74 638
14.76 654
14.78 630
14.8 663
14.82 645
14.84 670
14.86 651
14.88 660
14.9 666
14.92 642
14.94 628
14.96 593
14.98 629
15 662
15.02 651
15.04 631
15.06 674
15.08 678
15.1 681
15.12 663
15.14 669
15.16 675
15.18 675
15.2 690
15.22 672
15.24 679
15.26 653
15.28 675
15.3 686
15.32 688
15.34 723
15.36 657
15.38 714
15.4 683
15.42 702
15.44 629
15.46 665
15.48 699
15.5 649
15.52 667
15.54 699
15.56 665
15.58 697
15.6 715
15.62 660
15.64 704
15.66 721
15.68 725
15.7 716
15.72 722
15.74 709
15.76 717
15.78 705
15.8 725
15.82 773
15.84 738
15.86 741
15.88 700
15.9 726
15.92 718
15.94 727
15.96 716
15.98 758
16 744
16.02 739
16.04 761
16.06 706
16.08 713
16.1 735
16.12 751
16.14 736
16.16 753
16.18 760
16.2 795
16.22 742
16.24 742
16.26 771
16.28 809
16.3 766
16.32 778
16.34 815
16.36 758
16.38 795
16.4 807
16.42 805
16.44 795
16.46 795
16.48 808
16.5 815
16.52 878
16.54 814
16.56 785
16.58 830
16.6 828
16.62 901
16.64 863
16.66 963
16.68 930
16.7 1015
16.72 923
16.74 988
16.76 1009
16.78 1156
16.8 1197
16.82 1270
16.84 1347
16.86 1544
16.88 1662
16.9 1921
16.92 2196
16.94 2514
16.96 2831
16.98 3195
17 3099
17.02 2978
17.04 2747
17.06 2617
17.08 2161
17.1 1784
17.12 1573
17.14 1409
17.16 1273
17.18 1150
17.2 1070
17.22 1083
17.24 1023
17.26 942
17.28 934
17.3 886
17.32 895
17.34 905
17.36 908
17.38 938
17.4 909
17.42 874
17.44 918
17.46 946
17.48 916
17.5 885
17.52 948
17.54 909
17.56 921
17.58 936
17.6 925
17.62 953
17.64 924
17.66 937
17.68 909
17.7 898
17.72 934
17.74 907
17.76 977
17.78 961
17.8 956
17.82 974
17.84 960
17.86 962
17.88 958
17.9 921
17.92 952
17.94 972
17.96 923
17.98 959
18 985
18.02 993
18.04 952
18.06 949
18.08 930
18.1 982
18.12 989
18.14 987
18.16 965
18.18 972
18.2 985
18.22 1005
18.24 980
18.26 1010
18.28 1016
18.3 990
18.32 1023
18.34 1049
18.36 1074
18.38 1002
18.4 971
18.42 1042
18.44 1033
18.46 1013
18.48 1025
18.5 1015
18.52 1057
18.54 1041
18.56 1081
18.58 1061
18.6 1036
18.62 1100
18.64 1077
18.66 1025
18.68 1063
18.7 1056
18.72 1054
18.74 1040
18.76 1062
18.78 1046
18.8 1044
18.82 1116
18.84 1106
18.86 1170
18.88 1102
18.9 1124
18.92 1129
18.94 1106
18.96 1122
18.98 1058
19 1108
19.02 1168
19.04 1092
19.06 1144
19.08 1162
19.1 1139
19.12 1108
19.14 1197
19.16 1117
19.18 1099
19.2 1154
19.22 1198
19.24 1171
19.26 1095
19.28 1164
19.3 1147
19.32 1161
19.34 1154
19.36 1157
19.38 1130
19.4 1148
19.42 1143
19.44 1161
19.46 1167
19.48 1148
19.5 1159
19.52 1208
19.54 1194
19.56 1193
19.58 1205
19.6 1200
19.62 1167
19.64 1203
19.66 1247
19.68 1210
19.7 1257
19.72 1232
19.74 1256
19.76 1217
19.78 1291
19.8 1230
19.82 1222
19.84 1264
19.86 1242
19.88 1294
19.9 1335
19.92 1252
19.94 1241
19.96 1246
19.98 1273
20 1296