File: xrd-UiO-67/pxrddata/36-11.ASC
3 2895
3.02 2638
3.04 2613
3.06 2538
3.08 2422
3.1 2374
3.12 2342
3.14 2341
3.16 2247
3.18 2157
3.2 2298
3.22 2224
3.24 2259
3.26 2129
3.28 2153
3.3 2086
3.32 2166
3.34 2047
3.36 2078
3.38 2106
3.4 2003
3.42 2050
3.44 2007
3.46 1961
3.48 1939
3.5 1963
3.52 1955
3.54 1881
3.56 1884
3.58 1850
3.6 1909
3.62 1836
3.64 1868
3.66 1837
3.68 1833
3.7 1736
3.72 1742
3.74 1714
3.76 1720
3.78 1683
3.8 1638
3.82 1601
3.84 1656
3.86 1732
3.88 1641
3.9 1606
3.92 1594
3.94 1503
3.96 1566
3.98 1621
4 1597
4.02 1499
4.04 1499
4.06 1524
4.08 1504
4.1 1494
4.12 1396
4.14 1444
4.16 1438
4.18 1373
4.2 1388
4.22 1322
4.24 1379
4.26 1361
4.28 1379
4.3 1305
4.32 1280
4.34 1321
4.36 1339
4.38 1308
4.4 1238
4.42 1197
4.44 1159
4.46 1200
4.48 1240
4.5 1206
4.52 1146
4.54 1158
4.56 1097
4.58 1142
4.6 1141
4.62 1151
4.64 1157
4.66 1102
4.68 1077
4.7 1096
4.72 1123
4.74 1030
4.76 1078
4.78 1050
4.8 1022
4.82 1049
4.84 1014
4.86 1025
4.88 1028
4.9 978
4.92 976
4.94 991
4.96 1009
4.98 989
5 951
5.02 940
5.04 932
5.06 892
5.08 937
5.1 864
5.12 973
5.14 945
5.16 886
5.18 862
5.2 904
5.22 928
5.24 888
5.26 913
5.28 835
5.3 932
5.32 900
5.34 916
5.36 875
5.38 914
5.4 913
5.42 921
5.44 846
5.46 901
5.48 912
5.5 872
5.52 837
5.54 856
5.56 816
5.58 807
5.6 831
5.62 797
5.64 801
5.66 774
5.68 819
5.7 776
5.72 759
5.74 753
5.76 734
5.78 788
5.8 780
5.82 763
5.84 718
5.86 739
5.88 749
5.9 736
5.92 690
5.94 778
5.96 728
5.98 729
6 752
6.02 697
6.04 670
6.06 705
6.08 648
6.1 706
6.12 673
6.14 655
6.16 664
6.18 698
6.2 724
6.22 683
6.24 673
6.26 721
6.28 718
6.3 685
6.32 649
6.34 653
6.36 659
6.38 684
6.4 655
6.42 662
6.44 704
6.46 645
6.48 647
6.5 663
6.52 653
6.54 659
6.56 621
6.58 619
6.6 657
6.62 607
6.64 678
6.66 628
6.68 684
6.7 611
6.72 617
6.74 640
6.76 654
6.78 626
6.8 620
6.82 640
6.84 631
6.86 651
6.88 648
6.9 627
6.92 623
6.94 626
6.96 628
6.98 603
7 615
7.02 574
7.04 595
7.06 608
7.08 630
7.1 642
7.12 636
7.14 656
7.16 581
7.18 578
7.2 625
7.22 617
7.24 600
7.26 593
7.28 543
7.3 624
7.32 614
7.34 616
7.36 592
7.38 583
7.4 617
7.42 614
7.44 596
7.46 580
7.48 570
7.5 570
7.52 582
7.54 566
7.56 602
7.58 597
7.6 585
7.62 600
7.64 613
7.66 594
7.68 586
7.7 576
7.72 557
7.74 595
7.76 556
7.78 591
7.8 564
7.82 608
7.84 564
7.86 591
7.88 532
7.9 567
7.92 542
7.94 556
7.96 531
7.98 583
8 592
8.02 553
8.04 591
8.06 520
8.08 556
8.1 540
8.12 565
8.14 533
8.16 547
8.18 538
8.2 556
8.22 544
8.24 536
8.26 525
8.28 557
8.3 590
8.32 535
8.34 540
8.36 540
8.38 564
8.4 522
8.42 557
8.44 541
8.46 553
8.48 522
8.5 561
8.52 555
8.54 570
8.56 583
8.58 532
8.6 540
8.62 582
8.64 574
8.66 588
8.68 554
8.7 553
8.72 564
8.74 524
8.76 559
8.78 551
8.8 549
8.82 548
8.84 553
8.86 547
8.88 569
8.9 536
8.92 570
8.94 552
8.96 553
8.98 535
9 556
9.02 561
9.04 582
9.06 550
9.08 543
9.1 573
9.12 512
9.14 528
9.16 542
9.18 518
9.2 532
9.22 503
9.24 532
9.26 520
9.28 536
9.3 541
9.32 542
9.34 548
9.36 578
9.38 580
9.4 547
9.42 520
9.44 505
9.46 535
9.48 526
9.5 507
9.52 492
9.54 502
9.56 460
9.58 520
9.6 511
9.62 492
9.64 469
9.66 497
9.68 531
9.7 497
9.72 468
9.74 486
9.76 500
9.78 497
9.8 512
9.82 507
9.84 488
9.86 490
9.88 507
9.9 492
9.92 493
9.94 515
9.96 503
9.98 496
10 474
10.02 467
10.04 487
10.06 465
10.08 470
10.1 485
10.12 466
10.14 527
10.16 500
10.18 450
10.2 463
10.22 478
10.24 513
10.26 459
10.28 482
10.3 474
10.32 463
10.34 468
10.36 470
10.38 450
10.4 494
10.42 445
10.44 498
10.46 490
10.48 440
10.5 492
10.52 504
10.54 492
10.56 495
10.58 488
10.6 447
10.62 462
10.64 462
10.66 448
10.68 523
10.7 479
10.72 461
10.74 501
10.76 477
10.78 463
10.8 467
10.82 465
10.84 487
10.86 450
10.88 440
10.9 483
10.92 457
10.94 495
10.96 470
10.98 460
11 466
11.02 452
11.04 490
11.06 477
11.08 466
11.1 441
11.12 462
11.14 464
11.16 452
11.18 440
11.2 494
11.22 485
11.24 440
11.26 433
11.28 471
11.3 463
11.32 449
11.34 423
11.36 457
11.38 446
11.4 450
11.42 416
11.44 474
11.46 455
11.48 447
11.5 430
11.52 424
11.54 473
11.56 459
11.58 440
11.6 446
11.62 483
11.64 446
11.66 489
11.68 449
11.7 492
11.72 470
11.74 432
11.76 469
11.78 467
11.8 454
11.82 461
11.84 501
11.86 447
11.88 454
11.9 470
11.92 457
11.94 452
11.96 478
11.98 463
12 480
12.02 445
12.04 496
12.06 472
12.08 482
12.1 470
12.12 468
12.14 471
12.16 463
12.18 477
12.2 421
12.22 445
12.24 427
12.26 441
12.28 447
12.3 499
12.32 463
12.34 452
12.36 485
12.38 475
12.4 461
12.42 476
12.44 428
12.46 483
12.48 430
12.5 488
12.52 448
12.54 445
12.56 431
12.58 478
12.6 491
12.62 485
12.64 442
12.66 462
12.68 464
12.7 494
12.72 440
12.74 443
12.76 477
12.78 476
12.8 468
12.82 463
12.84 449
12.86 475
12.88 498
12.9 457
12.92 468
12.94 429
12.96 448
12.98 491
13 449
13.02 485
13.04 493
13.06 475
13.08 464
13.1 499
13.12 485
13.14 470
13.16 491
13.18 481
13.2 504
13.22 497
13.24 471
13.26 490
13.28 470
13.3 444
13.32 469
13.34 473
13.36 431
13.38 453
13.4 482
13.42 478
13.44 465
13.46 524
13.48 472
13.5 452
13.52 457
13.54 420
13.56 483
13.58 475
13.6 487
13.62 486
13.64 482
13.66 469
13.68 481
13.7 472
13.72 483
13.74 454
13.76 487
13.78 493
13.8 471
13.82 469
13.84 448
13.86 503
13.88 485
13.9 417
13.92 499
13.94 482
13.96 462
13.98 468
14 494
14.02 468
14.04 485
14.06 448
14.08 481
14.1 483
14.12 487
14.14 471
14.16 483
14.18 477
14.2 479
14.22 467
14.24 461
14.26 518
14.28 512
14.3 443
14.32 506
14.34 499
14.36 477
14.38 515
14.4 501
14.42 455
14.44 497
14.46 487
14.48 474
14.5 493
14.52 490
14.54 528
14.56 454
14.58 492
14.6 506
14.62 545
14.64 509
14.66 491
14.68 512
14.7 532
14.72 516
14.74 532
14.76 515
14.78 522
14.8 520
14.82 532
14.84 536
14.86 504
14.88 484
14.9 485
14.92 502
14.94 507
14.96 538
14.98 514
15 510
15.02 494
15.04 504
15.06 520
15.08 545
15.1 537
15.12 503
15.14 527
15.16 502
15.18 491
15.2 488
15.22 556
15.24 544
15.26 540
15.28 543
15.3 519
15.32 518
15.34 547
15.36 540
15.38 507
15.4 518
15.42 531
15.44 529
15.46 567
15.48 555
15.5 557
15.52 532
15.54 520
15.56 580
15.58 553
15.6 550
15.62 520
15.64 538
15.66 504
15.68 564
15.7 574
15.72 520
15.74 546
15.76 577
15.78 539
15.8 549
15.82 536
15.84 540
15.86 586
15.88 583
15.9 525
15.92 544
15.94 561
15.96 543
15.98 565
16 571
16.02 586
16.04 558
16.06 549
16.08 556
16.1 578
16.12 560
16.14 517
16.16 571
16.18 563
16.2 582
16.22 588
16.24 570
16.26 557
16.28 579
16.3 599
16.32 615
16.34 568
16.36 601
16.38 557
16.4 608
16.42 587
16.44 637
16.46 607
16.48 580
16.5 618
16.52 638
16.54 631
16.56 612
16.58 603
16.6 636
16.62 662
16.64 653
16.66 703
16.68 669
16.7 714
16.72 675
16.74 758
16.76 752
16.78 752
16.8 887
16.82 893
16.84 946
16.86 1065
16.88 1181
16.9 1435
16.92 1699
16.94 1818
16.96 1837
16.98 1700
17 1552
17.02 1310
17.04 1159
17.06 1011
17.08 938
17.1 880
17.12 756
17.14 714
17.16 716
17.18 664
17.2 686
17.22 646
17.24 678
17.26 721
17.28 667
17.3 637
17.32 667
17.34 673
17.36 640
17.38 636
17.4 681
17.42 675
17.44 654
17.46 632
17.48 659
17.5 701
17.52 673
17.54 636
17.56 661
17.58 673
17.6 689
17.62 719
17.64 677
17.66 688
17.68 700
17.7 669
17.72 744
17.74 675
17.76 660
17.78 705
17.8 681
17.82 735
17.84 707
17.86 664
17.88 722
17.9 679
17.92 643
17.94 719
17.96 719
17.98 740
18 731
18.02 694
18.04 662
18.06 698
18.08 732
18.1 695
18.12 726
18.14 693
18.16 681
18.18 722
18.2 735
18.22 741
18.24 717
18.26 703
18.28 731
18.3 714
18.32 750
18.34 747
18.36 747
18.38 708
18.4 713
18.42 776
18.44 783
18.46 792
18.48 779
18.5 749
18.52 786
18.54 727
18.56 711
18.58 719
18.6 721
18.62 820
18.64 769
18.66 785
18.68 823
18.7 761
18.72 763
18.74 737
18.76 724
18.78 763
18.8 775
18.82 781
18.84 756
18.86 778
18.88 820
18.9 708
18.92 743
18.94 816
18.96 763
18.98 780
19 777
19.02 827
19.04 770
19.06 781
19.08 772
19.1 818
19.12 793
19.14 791
19.16 804
19.18 826
19.2 781
19.22 784
19.24 798
19.26 748
19.28 810
19.3 751
19.32 829
19.34 857
19.36 833
19.38 801
19.4 822
19.42 809
19.44 850
19.46 748
19.48 862
19.5 817
19.52 861
19.54 804
19.56 872
19.58 870
19.6 826
19.62 874
19.64 841
19.66 867
19.68 789
19.7 879
19.72 791
19.74 841
19.76 880
19.78 830
19.8 834
19.82 871
19.84 901
19.86 872
19.88 872
19.9 823
19.92 870
19.94 908
19.96 861
19.98 846
20 927