File: xrd-UiO-67/pxrddata/36-16.ASC
3 3140
3.02 3082
3.04 3093
3.06 2792
3.08 2749
3.1 2583
3.12 2485
3.14 2526
3.16 2462
3.18 2447
3.2 2451
3.22 2427
3.24 2339
3.26 2321
3.28 2213
3.3 2231
3.32 2129
3.34 2111
3.36 2177
3.38 2064
3.4 2105
3.42 2044
3.44 2109
3.46 2070
3.48 2047
3.5 1925
3.52 2024
3.54 1917
3.56 1866
3.58 1921
3.6 1909
3.62 1823
3.64 1859
3.66 1768
3.68 1781
3.7 1732
3.72 1777
3.74 1762
3.76 1732
3.78 1697
3.8 1677
3.82 1706
3.84 1662
3.86 1659
3.88 1631
3.9 1600
3.92 1617
3.94 1603
3.96 1591
3.98 1656
4 1604
4.02 1540
4.04 1557
4.06 1496
4.08 1559
4.1 1473
4.12 1481
4.14 1489
4.16 1430
4.18 1450
4.2 1460
4.22 1340
4.24 1343
4.26 1358
4.28 1378
4.3 1262
4.32 1295
4.34 1269
4.36 1269
4.38 1232
4.4 1246
4.42 1190
4.44 1236
4.46 1196
4.48 1188
4.5 1123
4.52 1176
4.54 1194
4.56 1103
4.58 1162
4.6 1131
4.62 1148
4.64 1120
4.66 1076
4.68 1148
4.7 1113
4.72 1063
4.74 1117
4.76 1082
4.78 1086
4.8 1111
4.82 1111
4.84 1072
4.86 1039
4.88 1052
4.9 1067
4.92 997
4.94 1110
4.96 1001
4.98 1105
5 959
5.02 1017
5.04 1060
5.06 1085
5.08 1061
5.1 1052
5.12 1067
5.14 1101
5.16 1122
5.18 1105
5.2 1172
5.22 1169
5.24 1178
5.26 1204
5.28 1233
5.3 1238
5.32 1339
5.34 1377
5.36 1443
5.38 1497
5.4 1454
5.42 1518
5.44 1438
5.46 1374
5.48 1403
5.5 1253
5.52 1323
5.54 1368
5.56 1358
5.58 1382
5.6 1353
5.62 1363
5.64 1453
5.66 1525
5.68 1560
5.7 1580
5.72 1640
5.74 1676
5.76 1633
5.78 1526
5.8 1417
5.82 1354
5.84 1178
5.86 1093
5.88 946
5.9 908
5.92 866
5.94 865
5.96 863
5.98 814
6 832
6.02 854
6.04 701
6.06 780
6.08 740
6.1 711
6.12 794
6.14 764
6.16 718
6.18 705
6.2 735
6.22 714
6.24 717
6.26 723
6.28 722
6.3 745
6.32 646
6.34 699
6.36 704
6.38 722
6.4 660
6.42 704
6.44 707
6.46 677
6.48 689
6.5 687
6.52 675
6.54 709
6.56 697
6.58 730
6.6 696
6.62 686
6.64 685
6.66 701
6.68 711
6.7 678
6.72 733
6.74 734
6.76 709
6.78 726
6.8 690
6.82 631
6.84 646
6.86 644
6.88 647
6.9 660
6.92 602
6.94 636
6.96 615
6.98 611
7 626
7.02 619
7.04 616
7.06 654
7.08 597
7.1 590
7.12 576
7.14 631
7.16 610
7.18 612
7.2 625
7.22 618
7.24 635
7.26 604
7.28 611
7.3 587
7.32 590
7.34 593
7.36 594
7.38 558
7.4 578
7.42 580
7.44 570
7.46 574
7.48 556
7.5 620
7.52 568
7.54 547
7.56 530
7.58 540
7.6 559
7.62 573
7.64 564
7.66 596
7.68 582
7.7 605
7.72 545
7.74 553
7.76 565
7.78 564
7.8 553
7.82 585
7.84 591
7.86 609
7.88 540
7.9 532
7.92 601
7.94 552
7.96 527
7.98 539
8 549
8.02 559
8.04 579
8.06 552
8.08 557
8.1 559
8.12 564
8.14 522
8.16 550
8.18 527
8.2 562
8.22 564
8.24 519
8.26 527
8.28 549
8.3 533
8.32 557
8.34 523
8.36 582
8.38 520
8.4 539
8.42 529
8.44 549
8.46 535
8.48 563
8.5 520
8.52 509
8.54 500
8.56 538
8.58 514
8.6 526
8.62 509
8.64 505
8.66 529
8.68 527
8.7 498
8.72 534
8.74 498
8.76 529
8.78 523
8.8 543
8.82 520
8.84 525
8.86 539
8.88 536
8.9 515
8.92 520
8.94 533
8.96 550
8.98 538
9 558
9.02 548
9.04 550
9.06 621
9.08 604
9.1 563
9.12 610
9.14 547
9.16 588
9.18 565
9.2 622
9.22 669
9.24 692
9.26 734
9.28 853
9.3 845
9.32 809
9.34 768
9.36 672
9.38 657
9.4 645
9.42 581
9.44 563
9.46 516
9.48 528
9.5 559
9.52 546
9.54 468
9.56 540
9.58 502
9.6 507
9.62 479
9.64 474
9.66 493
9.68 462
9.7 515
9.72 503
9.74 534
9.76 495
9.78 463
9.8 485
9.82 475
9.84 482
9.86 539
9.88 521
9.9 460
9.92 480
9.94 520
9.96 486
9.98 514
10 534
10.02 489
10.04 523
10.06 523
10.08 539
10.1 534
10.12 560
10.14 550
10.16 575
10.18 510
10.2 541
10.22 494
10.24 536
10.26 516
10.28 489
10.3 500
10.32 483
10.34 513
10.36 475
10.38 481
10.4 504
10.42 499
10.44 493
10.46 488
10.48 497
10.5 478
10.52 511
10.54 536
10.56 445
10.58 453
10.6 507
10.62 535
10.64 518
10.66 519
10.68 553
10.7 551
10.72 551
10.74 592
10.76 581
10.78 602
10.8 527
10.82 574
10.84 548
10.86 574
10.88 580
10.9 620
10.92 624
10.94 609
10.96 572
10.98 556
11 541
11.02 514
11.04 454
11.06 480
11.08 475
11.1 497
11.12 477
11.14 497
11.16 481
11.18 470
11.2 460
11.22 450
11.24 455
11.26 446
11.28 475
11.3 452
11.32 489
11.34 504
11.36 475
11.38 495
11.4 499
11.42 480
11.44 464
11.46 482
11.48 530
11.5 482
11.52 492
11.54 481
11.56 505
11.58 493
11.6 493
11.62 434
11.64 479
11.66 485
11.68 487
11.7 444
11.72 465
11.74 457
11.76 463
11.78 447
11.8 468
11.82 441
11.84 460
11.86 474
11.88 496
11.9 458
11.92 432
11.94 449
11.96 464
11.98 432
12 459
12.02 504
12.04 488
12.06 474
12.08 474
12.1 453
12.12 491
12.14 524
12.16 496
12.18 476
12.2 448
12.22 479
12.24 497
12.26 484
12.28 491
12.3 470
12.32 448
12.34 476
12.36 449
12.38 462
12.4 489
12.42 449
12.44 452
12.46 421
12.48 470
12.5 433
12.52 454
12.54 463
12.56 434
12.58 452
12.6 419
12.62 454
12.64 441
12.66 429
12.68 433
12.7 489
12.72 433
12.74 479
12.76 410
12.78 456
12.8 452
12.82 469
12.84 409
12.86 447
12.88 433
12.9 466
12.92 453
12.94 477
12.96 449
12.98 479
13 456
13.02 419
13.04 452
13.06 419
13.08 429
13.1 475
13.12 483
13.14 481
13.16 458
13.18 505
13.2 493
13.22 486
13.24 522
13.26 496
13.28 476
13.3 488
13.32 481
13.34 487
13.36 462
13.38 468
13.4 454
13.42 477
13.44 473
13.46 493
13.48 505
13.5 479
13.52 465
13.54 492
13.56 481
13.58 428
13.6 428
13.62 503
13.64 469
13.66 453
13.68 434
13.7 477
13.72 441
13.74 462
13.76 465
13.78 464
13.8 486
13.82 490
13.84 471
13.86 457
13.88 502
13.9 479
13.92 467
13.94 445
13.96 502
13.98 496
14 516
14.02 469
14.04 472
14.06 442
14.08 489
14.1 483
14.12 500
14.14 462
14.16 470
14.18 477
14.2 483
14.22 474
14.24 485
14.26 460
14.28 474
14.3 449
14.32 484
14.34 506
14.36 434
14.38 533
14.4 487
14.42 498
14.44 467
14.46 449
14.48 459
14.5 441
14.52 455
14.54 492
14.56 486
14.58 483
14.6 522
14.62 527
14.64 484
14.66 498
14.68 487
14.7 436
14.72 517
14.74 518
14.76 521
14.78 489
14.8 486
14.82 481
14.84 524
14.86 519
14.88 549
14.9 551
14.92 485
14.94 493
14.96 544
14.98 520
15 457
15.02 486
15.04 482
15.06 524
15.08 518
15.1 469
15.12 509
15.14 513
15.16 486
15.18 493
15.2 475
15.22 536
15.24 505
15.26 505
15.28 508
15.3 536
15.32 509
15.34 490
15.36 526
15.38 521
15.4 499
15.42 525
15.44 515
15.46 519
15.48 504
15.5 496
15.52 566
15.54 527
15.56 530
15.58 521
15.6 563
15.62 537
15.64 547
15.66 536
15.68 552
15.7 530
15.72 557
15.74 557
15.76 524
15.78 543
15.8 515
15.82 510
15.84 568
15.86 552
15.88 578
15.9 557
15.92 524
15.94 573
15.96 574
15.98 559
16 558
16.02 517
16.04 532
16.06 529
16.08 558
16.1 523
16.12 570
16.14 560
16.16 573
16.18 599
16.2 569
16.22 540
16.24 558
16.26 580
16.28 566
16.3 580
16.32 574
16.34 564
16.36 571
16.38 564
16.4 567
16.42 544
16.44 575
16.46 588
16.48 568
16.5 601
16.52 567
16.54 640
16.56 550
16.58 583
16.6 569
16.62 589
16.64 594
16.66 625
16.68 641
16.7 622
16.72 617
16.74 657
16.76 665
16.78 638
16.8 727
16.82 702
16.84 757
16.86 791
16.88 903
16.9 969
16.92 1068
16.94 1267
16.96 1435
16.98 1344
17 1149
17.02 1098
17.04 846
17.06 784
17.08 701
17.1 723
17.12 666
17.14 671
17.16 630
17.18 632
17.2 607
17.22 695
17.24 597
17.26 627
17.28 604
17.3 614
17.32 583
17.34 612
17.36 650
17.38 640
17.4 623
17.42 675
17.44 610
17.46 626
17.48 650
17.5 624
17.52 649
17.54 597
17.56 667
17.58 654
17.6 684
17.62 634
17.64 641
17.66 647
17.68 653
17.7 682
17.72 680
17.74 652
17.76 598
17.78 632
17.8 655
17.82 661
17.84 637
17.86 701
17.88 640
17.9 672
17.92 701
17.94 649
17.96 672
17.98 677
18 667
18.02 694
18.04 679
18.06 671
18.08 699
18.1 682
18.12 697
18.14 670
18.16 698
18.18 694
18.2 689
18.22 685
18.24 677
18.26 681
18.28 690
18.3 685
18.32 677
18.34 704
18.36 738
18.38 682
18.4 670
18.42 710
18.44 731
18.46 737
18.48 713
18.5 732
18.52 723
18.54 651
18.56 739
18.58 769
18.6 762
18.62 725
18.64 750
18.66 753
18.68 753
18.7 759
18.72 744
18.74 716
18.76 751
18.78 763
18.8 783
18.82 815
18.84 749
18.86 724
18.88 808
18.9 766
18.92 768
18.94 815
18.96 787
18.98 812
19 824
19.02 809
19.04 833
19.06 828
19.08 853
19.1 850
19.12 764
19.14 813
19.16 769
19.18 811
19.2 815
19.22 821
19.24 776
19.26 811
19.28 818
19.3 833
19.32 859
19.34 806
19.36 859
19.38 849
19.4 898
19.42 834
19.44 876
19.46 908
19.48 892
19.5 931
19.52 899
19.54 865
19.56 900
19.58 839
19.6 796
19.62 817
19.64 809
19.66 814
19.68 840
19.7 782
19.72 844
19.74 826
19.76 861
19.78 863
19.8 885
19.82 887
19.84 863
19.86 845
19.88 832
19.9 848
19.92 877
19.94 831
19.96 840
19.98 851
20 826