File: xrd-UiO-67/pxrddata/36-1.ASC
3 2828
3.02 2631
3.04 2566
3.06 2389
3.08 2255
3.1 2348
3.12 2169
3.14 2219
3.16 2174
3.18 2094
3.2 2102
3.22 1949
3.24 2040
3.26 2057
3.28 1989
3.3 1917
3.32 1940
3.34 1808
3.36 1793
3.38 1884
3.4 1794
3.42 1862
3.44 1775
3.46 1796
3.48 1731
3.5 1720
3.52 1717
3.54 1659
3.56 1601
3.58 1659
3.6 1563
3.62 1619
3.64 1599
3.66 1570
3.68 1544
3.7 1546
3.72 1500
3.74 1439
3.76 1477
3.78 1443
3.8 1373
3.82 1354
3.84 1436
3.86 1431
3.88 1385
3.9 1347
3.92 1336
3.94 1249
3.96 1376
3.98 1300
4 1281
4.02 1267
4.04 1249
4.06 1346
4.08 1299
4.1 1269
4.12 1192
4.14 1201
4.16 1183
4.18 1204
4.2 1141
4.22 1187
4.24 1198
4.26 1145
4.28 1127
4.3 1125
4.32 1149
4.34 1099
4.36 1058
4.38 1127
4.4 1091
4.42 1107
4.44 1060
4.46 1057
4.48 1046
4.5 1026
4.52 1004
4.54 1054
4.56 972
4.58 1015
4.6 982
4.62 973
4.64 993
4.66 977
4.68 963
4.7 963
4.72 914
4.74 966
4.76 923
4.78 895
4.8 960
4.82 907
4.84 950
4.86 949
4.88 928
4.9 964
4.92 869
4.94 923
4.96 844
4.98 892
5 871
5.02 857
5.04 845
5.06 863
5.08 845
5.1 851
5.12 866
5.14 867
5.16 811
5.18 814
5.2 834
5.22 823
5.24 778
5.26 823
5.28 750
5.3 808
5.32 809
5.34 821
5.36 775
5.38 807
5.4 789
5.42 790
5.44 781
5.46 805
5.48 791
5.5 839
5.52 808
5.54 793
5.56 753
5.58 790
5.6 791
5.62 715
5.64 811
5.66 734
5.68 776
5.7 761
5.72 762
5.74 773
5.76 757
5.78 779
5.8 717
5.82 709
5.84 694
5.86 699
5.88 771
5.9 749
5.92 713
5.94 778
5.96 774
5.98 696
6 721
6.02 722
6.04 767
6.06 748
6.08 736
6.1 708
6.12 698
6.14 738
6.16 703
6.18 692
6.2 704
6.22 707
6.24 742
6.26 703
6.28 698
6.3 706
6.32 646
6.34 656
6.36 703
6.38 692
6.4 688
6.42 673
6.44 704
6.46 661
6.48 665
6.5 694
6.52 686
6.54 670
6.56 671
6.58 730
6.6 648
6.62 652
6.64 666
6.66 665
6.68 676
6.7 663
6.72 621
6.74 676
6.76 670
6.78 636
6.8 687
6.82 665
6.84 666
6.86 695
6.88 682
6.9 665
6.92 621
6.94 615
6.96 632
6.98 700
7 673
7.02 698
7.04 621
7.06 642
7.08 664
7.1 667
7.12 668
7.14 627
7.16 644
7.18 654
7.2 654
7.22 657
7.24 634
7.26 669
7.28 621
7.3 629
7.32 633
7.34 653
7.36 633
7.38 601
7.4 637
7.42 669
7.44 642
7.46 665
7.48 634
7.5 651
7.52 654
7.54 618
7.56 666
7.58 655
7.6 619
7.62 616
7.64 580
7.66 676
7.68 667
7.7 626
7.72 638
7.74 627
7.76 579
7.78 614
7.8 586
7.82 631
7.84 625
7.86 638
7.88 619
7.9 615
7.92 613
7.94 649
7.96 614
7.98 597
8 614
8.02 600
8.04 613
8.06 592
8.08 620
8.1 616
8.12 566
8.14 598
8.16 592
8.18 612
8.2 617
8.22 624
8.24 593
8.26 633
8.28 584
8.3 575
8.32 576
8.34 637
8.36 624
8.38 610
8.4 624
8.42 601
8.44 544
8.46 614
8.48 655
8.5 584
8.52 601
8.54 599
8.56 631
8.58 572
8.6 565
8.62 578
8.64 632
8.66 588
8.68 591
8.7 600
8.72 595
8.74 620
8.76 581
8.78 567
8.8 543
8.82 536
8.84 585
8.86 597
8.88 602
8.9 602
8.92 584
8.94 565
8.96 598
8.98 616
9 599
9.02 605
9.04 562
9.06 606
9.08 543
9.1 575
9.12 590
9.14 610
9.16 552
9.18 551
9.2 569
9.22 576
9.24 585
9.26 587
9.28 580
9.3 566
9.32 601
9.34 587
9.36 577
9.38 574
9.4 596
9.42 569
9.44 590
9.46 597
9.48 563
9.5 547
9.52 607
9.54 605
9.56 583
9.58 581
9.6 511
9.62 558
9.64 560
9.66 585
9.68 574
9.7 570
9.72 575
9.74 574
9.76 542
9.78 532
9.8 531
9.82 545
9.84 571
9.86 597
9.88 558
9.9 512
9.92 540
9.94 595
9.96 549
9.98 573
10 533
10.02 591
10.04 548
10.06 557
10.08 600
10.1 541
10.12 592
10.14 548
10.16 559
10.18 591
10.2 575
10.22 532
10.24 577
10.26 571
10.28 533
10.3 565
10.32 590
10.34 549
10.36 557
10.38 529
10.4 562
10.42 534
10.44 547
10.46 550
10.48 567
10.5 562
10.52 588
10.54 560
10.56 564
10.58 553
10.6 558
10.62 511
10.64 523
10.66 532
10.68 557
10.7 548
10.72 576
10.74 539
10.76 558
10.78 511
10.8 530
10.82 544
10.84 565
10.86 524
10.88 539
10.9 557
10.92 552
10.94 573
10.96 556
10.98 547
11 527
11.02 589
11.04 535
11.06 575
11.08 533
11.1 581
11.12 563
11.14 530
11.16 548
11.18 538
11.2 578
11.22 538
11.24 549
11.26 570
11.28 573
11.3 574
11.32 557
11.34 539
11.36 556
11.38 544
11.4 558
11.42 574
11.44 549
11.46 572
11.48 545
11.5 580
11.52 535
11.54 538
11.56 538
11.58 574
11.6 550
11.62 543
11.64 587
11.66 561
11.68 577
11.7 555
11.72 600
11.74 565
11.76 613
11.78 543
11.8 552
11.82 579
11.84 553
11.86 580
11.88 609
11.9 540
11.92 543
11.94 532
11.96 540
11.98 559
12 597
12.02 544
12.04 591
12.06 607
12.08 547
12.1 572
12.12 590
12.14 570
12.16 564
12.18 616
12.2 569
12.22 582
12.24 587
12.26 586
12.28 617
12.3 514
12.32 565
12.34 588
12.36 582
12.38 570
12.4 582
12.42 555
12.44 579
12.46 584
12.48 519
12.5 583
12.52 593
12.54 582
12.56 564
12.58 579
12.6 551
12.62 586
12.64 615
12.66 581
12.68 572
12.7 578
12.72 586
12.74 602
12.76 616
12.78 579
12.8 545
12.82 584
12.84 616
12.86 571
12.88 607
12.9 574
12.92 594
12.94 614
12.96 609
12.98 599
13 603
13.02 619
13.04 627
13.06 627
13.08 593
13.1 595
13.12 613
13.14 590
13.16 635
13.18 631
13.2 635
13.22 633
13.24 599
13.26 606
13.28 644
13.3 636
13.32 612
13.34 617
13.36 572
13.38 626
13.4 649
13.42 628
13.44 628
13.46 590
13.48 637
13.5 658
13.52 589
13.54 610
13.56 598
13.58 604
13.6 596
13.62 605
13.64 616
13.66 652
13.68 609
13.7 646
13.72 585
13.74 638
13.76 641
13.78 635
13.8 602
13.82 619
13.84 662
13.86 642
13.88 594
13.9 623
13.92 651
13.94 606
13.96 627
13.98 628
14 653
14.02 658
14.04 654
14.06 674
14.08 623
14.1 642
14.12 623
14.14 617
14.16 660
14.18 659
14.2 634
14.22 639
14.24 629
14.26 671
14.28 686
14.3 660
14.32 634
14.34 690
14.36 679
14.38 709
14.4 621
14.42 660
14.44 642
14.46 664
14.48 657
14.5 693
14.52 652
14.54 649
14.56 641
14.58 691
14.6 685
14.62 648
14.64 677
14.66 729
14.68 716
14.7 704
14.72 693
14.74 748
14.76 712
14.78 742
14.8 692
14.82 675
14.84 715
14.86 698
14.88 699
14.9 663
14.92 675
14.94 740
14.96 745
14.98 743
15 716
15.02 677
15.04 717
15.06 691
15.08 704
15.1 688
15.12 718
15.14 713
15.16 696
15.18 740
15.2 699
15.22 757
15.24 752
15.26 763
15.28 749
15.3 740
15.32 757
15.34 754
15.36 729
15.38 716
15.4 745
15.42 740
15.44 791
15.46 743
15.48 771
15.5 702
15.52 756
15.54 789
15.56 710
15.58 791
15.6 716
15.62 727
15.64 763
15.66 752
15.68 784
15.7 754
15.72 742
15.74 786
15.76 808
15.78 759
15.8 754
15.82 782
15.84 758
15.86 781
15.88 767
15.9 810
15.92 816
15.94 819
15.96 821
15.98 757
16 798
16.02 801
16.04 833
16.06 841
16.08 774
16.1 813
16.12 819
16.14 804
16.16 814
16.18 840
16.2 858
16.22 810
16.24 872
16.26 831
16.28 818
16.3 848
16.32 807
16.34 822
16.36 859
16.38 837
16.4 900
16.42 825
16.44 881
16.46 883
16.48 880
16.5 850
16.52 852
16.54 843
16.56 902
16.58 892
16.6 920
16.62 888
16.64 888
16.66 880
16.68 924
16.7 949
16.72 899
16.74 849
16.76 879
16.78 961
16.8 910
16.82 983
16.84 993
16.86 1030
16.88 1059
16.9 1072
16.92 1169
16.94 1202
16.96 1324
16.98 1411
17 1491
17.02 1520
17.04 1477
17.06 1363
17.08 1261
17.1 1121
17.12 1128
17.14 1045
17.16 1054
17.18 1001
17.2 984
17.22 923
17.24 913
17.26 974
17.28 946
17.3 993
17.32 930
17.34 929
17.36 958
17.38 958
17.4 967
17.42 975
17.44 969
17.46 1021
17.48 1000
17.5 941
17.52 990
17.54 971
17.56 1025
17.58 1025
17.6 1024
17.62 1020
17.64 958
17.66 1002
17.68 1010
17.7 1036
17.72 1030
17.74 1030
17.76 1001
17.78 1039
17.8 1070
17.82 996
17.84 997
17.86 1091
17.88 1064
17.9 1054
17.92 1076
17.94 1025
17.96 1045
17.98 1048
18 1048
18.02 1068
18.04 1013
18.06 1076
18.08 1088
18.1 1113
18.12 1049
18.14 1087
18.16 1147
18.18 1091
18.2 1084
18.22 1075
18.24 1105
18.26 1127
18.28 1064
18.3 1092
18.32 1099
18.34 1139
18.36 1054
18.38 1091
18.4 1147
18.42 1132
18.44 1109
18.46 1157
18.48 1086
18.5 1145
18.52 1146
18.54 1196
18.56 1164
18.58 1151
18.6 1147
18.62 1093
18.64 1157
18.66 1175
18.68 1195
18.7 1253
18.72 1142
18.74 1175
18.76 1213
18.78 1186
18.8 1231
18.82 1166
18.84 1221
18.86 1248
18.88 1230
18.9 1277
18.92 1230
18.94 1235
18.96 1190
18.98 1244
19 1232
19.02 1226
19.04 1215
19.06 1204
19.08 1249
19.1 1255
19.12 1279
19.14 1301
19.16 1257
19.18 1231
19.2 1224
19.22 1272
19.24 1244
19.26 1319
19.28 1268
19.3 1346
19.32 1270
19.34 1333
19.36 1310
19.38 1281
19.4 1320
19.42 1340
19.44 1311
19.46 1328
19.48 1324
19.5 1261
19.52 1375
19.54 1305
19.56 1326
19.58 1346
19.6 1294
19.62 1344
19.64 1295
19.66 1326
19.68 1348
19.7 1380
19.72 1425
19.74 1408
19.76 1348
19.78 1368
19.8 1341
19.82 1353
19.84 1407
19.86 1352
19.88 1415
19.9 1392
19.92 1422
19.94 1389
19.96 1409
19.98 1364
20 1394