File: xrd-UiO-67/pxrddata/36-29.ASC
3 2110
3.02 1985
3.04 1978
3.06 2002
3.08 1808
3.1 1828
3.12 1875
3.14 1870
3.16 1900
3.18 1829
3.2 1737
3.22 1749
3.24 1774
3.26 1747
3.28 1670
3.3 1676
3.32 1718
3.34 1561
3.36 1703
3.38 1679
3.4 1565
3.42 1605
3.44 1647
3.46 1592
3.48 1569
3.5 1541
3.52 1535
3.54 1484
3.56 1471
3.58 1480
3.6 1425
3.62 1423
3.64 1398
3.66 1384
3.68 1388
3.7 1357
3.72 1411
3.74 1329
3.76 1395
3.78 1322
3.8 1330
3.82 1303
3.84 1373
3.86 1318
3.88 1322
3.9 1279
3.92 1276
3.94 1304
3.96 1244
3.98 1259
4 1258
4.02 1303
4.04 1302
4.06 1277
4.08 1236
4.1 1242
4.12 1224
4.14 1200
4.16 1249
4.18 1191
4.2 1165
4.22 1220
4.24 1174
4.26 1199
4.28 1134
4.3 1188
4.32 1186
4.34 1150
4.36 1151
4.38 1189
4.4 1126
4.42 1110
4.44 1069
4.46 1203
4.48 1143
4.5 1152
4.52 1134
4.54 1105
4.56 1159
4.58 1135
4.6 1176
4.62 1137
4.64 1113
4.66 1125
4.68 1102
4.7 1109
4.72 1141
4.74 1121
4.76 1112
4.78 1099
4.8 1104
4.82 1064
4.84 1136
4.86 1107
4.88 1073
4.9 1164
4.92 1199
4.94 1133
4.96 1116
4.98 1116
5 1178
5.02 1147
5.04 1108
5.06 1174
5.08 1187
5.1 1270
5.12 1240
5.14 1225
5.16 1234
5.18 1263
5.2 1329
5.22 1302
5.24 1347
5.26 1453
5.28 1489
5.3 1487
5.32 1676
5.34 1761
5.36 1866
5.38 1977
5.4 2222
5.42 2413
5.44 2563
5.46 2301
5.48 1916
5.5 1630
5.52 1467
5.54 1351
5.56 1253
5.58 1190
5.6 1153
5.62 1115
5.64 1054
5.66 1035
5.68 1082
5.7 1000
5.72 960
5.74 946
5.76 978
5.78 993
5.8 903
5.82 988
5.84 961
5.86 922
5.88 906
5.9 844
5.92 870
5.94 827
5.96 864
5.98 836
6 872
6.02 816
6.04 832
6.06 791
6.08 782
6.1 802
6.12 821
6.14 773
6.16 764
6.18 781
6.2 749
6.22 774
6.24 665
6.26 733
6.28 713
6.3 749
6.32 724
6.34 737
6.36 713
6.38 755
6.4 759
6.42 718
6.44 723
6.46 739
6.48 746
6.5 699
6.52 719
6.54 734
6.56 686
6.58 677
6.6 664
6.62 697
6.64 703
6.66 692
6.68 678
6.7 618
6.72 720
6.74 628
6.76 704
6.78 644
6.8 599
6.82 675
6.84 670
6.86 690
6.88 701
6.9 677
6.92 612
6.94 658
6.96 617
6.98 617
7 651
7.02 618
7.04 640
7.06 649
7.08 622
7.1 621
7.12 602
7.14 610
7.16 629
7.18 622
7.2 669
7.22 630
7.24 620
7.26 592
7.28 640
7.3 612
7.32 632
7.34 609
7.36 624
7.38 587
7.4 612
7.42 685
7.44 606
7.46 622
7.48 627
7.5 630
7.52 587
7.54 612
7.56 614
7.58 596
7.6 609
7.62 590
7.64 599
7.66 616
7.68 522
7.7 662
7.72 626
7.74 601
7.76 622
7.78 589
7.8 618
7.82 572
7.84 559
7.86 554
7.88 600
7.9 623
7.92 586
7.94 619
7.96 584
7.98 609
8 566
8.02 598
8.04 531
8.06 587
8.08 550
8.1 570
8.12 581
8.14 594
8.16 555
8.18 603
8.2 561
8.22 560
8.24 553
8.26 562
8.28 582
8.3 584
8.32 576
8.34 576
8.36 591
8.38 566
8.4 567
8.42 599
8.44 568
8.46 558
8.48 569
8.5 584
8.52 597
8.54 576
8.56 545
8.58 592
8.6 535
8.62 567
8.64 585
8.66 526
8.68 590
8.7 593
8.72 547
8.74 548
8.76 567
8.78 563
8.8 570
8.82 595
8.84 556
8.86 552
8.88 597
8.9 548
8.92 594
8.94 613
8.96 554
8.98 574
9 558
9.02 588
9.04 547
9.06 577
9.08 641
9.1 651
9.12 673
9.14 625
9.16 656
9.18 648
9.2 683
9.22 689
9.24 722
9.26 705
9.28 819
9.3 822
9.32 938
9.34 958
9.36 989
9.38 940
9.4 844
9.42 751
9.44 626
9.46 591
9.48 621
9.5 620
9.52 605
9.54 575
9.56 572
9.58 610
9.6 564
9.62 553
9.64 562
9.66 568
9.68 550
9.7 566
9.72 528
9.74 531
9.76 571
9.78 562
9.8 571
9.82 531
9.84 553
9.86 525
9.88 539
9.9 581
9.92 521
9.94 554
9.96 526
9.98 541
10 569
10.02 575
10.04 542
10.06 544
10.08 534
10.1 560
10.12 550
10.14 541
10.16 532
10.18 549
10.2 542
10.22 539
10.24 552
10.26 556
10.28 517
10.3 535
10.32 549
10.34 538
10.36 550
10.38 551
10.4 528
10.42 530
10.44 500
10.46 506
10.48 531
10.5 528
10.52 543
10.54 600
10.56 579
10.58 516
10.6 505
10.62 539
10.64 562
10.66 574
10.68 589
10.7 642
10.72 687
10.74 663
10.76 755
10.78 729
10.8 757
10.82 743
10.84 707
10.86 674
10.88 607
10.9 635
10.92 597
10.94 557
10.96 613
10.98 597
11 633
11.02 559
11.04 557
11.06 579
11.08 548
11.1 556
11.12 540
11.14 555
11.16 590
11.18 583
11.2 534
11.22 556
11.24 515
11.26 563
11.28 493
11.3 519
11.32 514
11.34 559
11.36 545
11.38 515
11.4 500
11.42 505
11.44 526
11.46 531
11.48 532
11.5 513
11.52 551
11.54 531
11.56 544
11.58 543
11.6 512
11.62 533
11.64 537
11.66 516
11.68 518
11.7 547
11.72 550
11.74 506
11.76 542
11.78 529
11.8 536
11.82 543
11.84 507
11.86 552
11.88 550
11.9 548
11.92 513
11.94 519
11.96 540
11.98 579
12 505
12.02 520
12.04 518
12.06 495
12.08 519
12.1 529
12.12 498
12.14 564
12.16 533
12.18 555
12.2 583
12.22 508
12.24 563
12.26 520
12.28 558
12.3 541
12.32 568
12.34 526
12.36 544
12.38 548
12.4 490
12.42 542
12.44 548
12.46 507
12.48 534
12.5 535
12.52 582
12.54 538
12.56 537
12.58 551
12.6 526
12.62 553
12.64 552
12.66 579
12.68 556
12.7 583
12.72 523
12.74 577
12.76 563
12.78 565
12.8 533
12.82 533
12.84 563
12.86 543
12.88 510
12.9 551
12.92 586
12.94 600
12.96 546
12.98 531
13 535
13.02 595
13.04 533
13.06 528
13.08 539
13.1 549
13.12 550
13.14 522
13.16 577
13.18 606
13.2 541
13.22 565
13.24 551
13.26 587
13.28 559
13.3 555
13.32 584
13.34 569
13.36 572
13.38 588
13.4 558
13.42 560
13.44 578
13.46 558
13.48 538
13.5 602
13.52 562
13.54 651
13.56 515
13.58 554
13.6 536
13.62 568
13.64 568
13.66 568
13.68 559
13.7 570
13.72 596
13.74 603
13.76 557
13.78 553
13.8 553
13.82 626
13.84 597
13.86 560
13.88 584
13.9 605
13.92 589
13.94 562
13.96 591
13.98 604
14 613
14.02 575
14.04 574
14.06 575
14.08 598
14.1 625
14.12 578
14.14 599
14.16 602
14.18 624
14.2 585
14.22 610
14.24 585
14.26 610
14.28 614
14.3 629
14.32 617
14.34 601
14.36 607
14.38 644
14.4 605
14.42 605
14.44 590
14.46 599
14.48 629
14.5 567
14.52 628
14.54 624
14.56 593
14.58 561
14.6 617
14.62 631
14.64 617
14.66 620
14.68 675
14.7 614
14.72 603
14.74 641
14.76 585
14.78 606
14.8 616
14.82 616
14.84 574
14.86 611
14.88 647
14.9 590
14.92 628
14.94 614
14.96 668
14.98 649
15 613
15.02 642
15.04 617
15.06 649
15.08 611
15.1 583
15.12 582
15.14 582
15.16 606
15.18 630
15.2 640
15.22 630
15.24 636
15.26 643
15.28 671
15.3 635
15.32 647
15.34 642
15.36 646
15.38 665
15.4 655
15.42 646
15.44 694
15.46 640
15.48 654
15.5 648
15.52 614
15.54 672
15.56 669
15.58 721
15.6 651
15.62 674
15.64 651
15.66 663
15.68 662
15.7 643
15.72 664
15.74 659
15.76 642
15.78 696
15.8 701
15.82 699
15.84 659
15.86 664
15.88 666
15.9 662
15.92 671
15.94 697
15.96 692
15.98 693
16 682
16.02 703
16.04 674
16.06 719
16.08 700
16.1 700
16.12 751
16.14 663
16.16 716
16.18 710
16.2 674
16.22 706
16.24 703
16.26 712
16.28 700
16.3 685
16.32 700
16.34 716
16.36 703
16.38 720
16.4 711
16.42 687
16.44 733
16.46 728
16.48 702
16.5 736
16.52 710
16.54 697
16.56 711
16.58 753
16.6 763
16.62 730
16.64 801
16.66 821
16.68 767
16.7 787
16.72 767
16.74 753
16.76 755
16.78 795
16.8 810
16.82 846
16.84 845
16.86 897
16.88 887
16.9 908
16.92 1089
16.94 1167
16.96 1283
16.98 1510
17 1854
17.02 2054
17.04 1893
17.06 1688
17.08 1395
17.1 1171
17.12 1010
17.14 920
17.16 908
17.18 857
17.2 805
17.22 800
17.24 781
17.26 852
17.28 775
17.3 844
17.32 815
17.34 798
17.36 787
17.38 807
17.4 812
17.42 833
17.44 863
17.46 810
17.48 817
17.5 826
17.52 871
17.54 846
17.56 868
17.58 837
17.6 858
17.62 830
17.64 833
17.66 856
17.68 813
17.7 865
17.72 870
17.74 863
17.76 829
17.78 856
17.8 845
17.82 843
17.84 874
17.86 832
17.88 874
17.9 849
17.92 834
17.94 857
17.96 906
17.98 876
18 855
18.02 875
18.04 826
18.06 845
18.08 890
18.1 913
18.12 871
18.14 921
18.16 860
18.18 902
18.2 875
18.22 938
18.24 891
18.26 901
18.28 914
18.3 900
18.32 882
18.34 858
18.36 881
18.38 923
18.4 880
18.42 925
18.44 901
18.46 907
18.48 921
18.5 988
18.52 915
18.54 954
18.56 932
18.58 919
18.6 917
18.62 972
18.64 956
18.66 954
18.68 918
18.7 992
18.72 1031
18.74 980
18.76 979
18.78 941
18.8 972
18.82 895
18.84 996
18.86 961
18.88 1040
18.9 1049
18.92 1003
18.94 949
18.96 968
18.98 991
19 983
19.02 974
19.04 949
19.06 990
19.08 1057
19.1 1013
19.12 1013
19.14 1027
19.16 985
19.18 1013
19.2 1002
19.22 1020
19.24 1015
19.26 1008
19.28 1070
19.3 1053
19.32 1064
19.34 1076
19.36 1056
19.38 1093
19.4 1082
19.42 1146
19.44 1116
19.46 1035
19.48 1128
19.5 1110
19.52 1094
19.54 1189
19.56 1079
19.58 1120
19.6 1070
19.62 1103
19.64 1058
19.66 1071
19.68 1053
19.7 1069
19.72 1109
19.74 1027
19.76 1058
19.78 1108
19.8 1108
19.82 1098
19.84 1042
19.86 1106
19.88 1116
19.9 1092
19.92 1127
19.94 1100
19.96 1131
19.98 1154
20 1126