File: xrd-UiO-67/pxrddata/36-27.ASC
3 1817
3.02 1854
3.04 1749
3.06 1698
3.08 1739
3.1 1637
3.12 1680
3.14 1677
3.16 1666
3.18 1666
3.2 1582
3.22 1544
3.24 1519
3.26 1648
3.28 1603
3.3 1596
3.32 1541
3.34 1666
3.36 1493
3.38 1499
3.4 1507
3.42 1466
3.44 1536
3.46 1500
3.48 1490
3.5 1490
3.52 1370
3.54 1436
3.56 1396
3.58 1471
3.6 1389
3.62 1428
3.64 1431
3.66 1363
3.68 1367
3.7 1321
3.72 1397
3.74 1374
3.76 1410
3.78 1374
3.8 1338
3.82 1421
3.84 1405
3.86 1304
3.88 1362
3.9 1425
3.92 1424
3.94 1331
3.96 1427
3.98 1357
4 1333
4.02 1412
4.04 1319
4.06 1322
4.08 1361
4.1 1365
4.12 1331
4.14 1348
4.16 1387
4.18 1363
4.2 1303
4.22 1360
4.24 1318
4.26 1318
4.28 1355
4.3 1281
4.32 1318
4.34 1295
4.36 1356
4.38 1304
4.4 1337
4.42 1342
4.44 1379
4.46 1337
4.48 1291
4.5 1300
4.52 1325
4.54 1319
4.56 1351
4.58 1355
4.6 1266
4.62 1326
4.64 1333
4.66 1362
4.68 1344
4.7 1322
4.72 1332
4.74 1244
4.76 1358
4.78 1385
4.8 1298
4.82 1307
4.84 1337
4.86 1365
4.88 1275
4.9 1311
4.92 1321
4.94 1362
4.96 1369
4.98 1354
5 1386
5.02 1330
5.04 1342
5.06 1370
5.08 1354
5.1 1382
5.12 1408
5.14 1351
5.16 1387
5.18 1296
5.2 1410
5.22 1399
5.24 1428
5.26 1453
5.28 1503
5.3 1526
5.32 1508
5.34 1605
5.36 1608
5.38 1679
5.4 1873
5.42 1989
5.44 1930
5.46 1875
5.48 1832
5.5 1575
5.52 1404
5.54 1285
5.56 1276
5.58 1254
5.6 1202
5.62 1261
5.64 1217
5.66 1164
5.68 1210
5.7 1235
5.72 1184
5.74 1245
5.76 1219
5.78 1143
5.8 1170
5.82 1112
5.84 1104
5.86 1057
5.88 964
5.9 998
5.92 948
5.94 926
5.96 978
5.98 944
6 900
6.02 870
6.04 935
6.06 798
6.08 883
6.1 838
6.12 831
6.14 907
6.16 806
6.18 841
6.2 813
6.22 824
6.24 789
6.26 801
6.28 799
6.3 805
6.32 820
6.34 752
6.36 778
6.38 761
6.4 782
6.42 750
6.44 766
6.46 766
6.48 756
6.5 704
6.52 692
6.54 737
6.56 727
6.58 693
6.6 743
6.62 709
6.64 751
6.66 717
6.68 725
6.7 720
6.72 738
6.74 692
6.76 685
6.78 704
6.8 676
6.82 685
6.84 636
6.86 743
6.88 624
6.9 644
6.92 665
6.94 664
6.96 671
6.98 667
7 696
7.02 693
7.04 657
7.06 612
7.08 658
7.1 651
7.12 648
7.14 638
7.16 629
7.18 590
7.2 624
7.22 560
7.24 597
7.26 603
7.28 630
7.3 601
7.32 639
7.34 610
7.36 605
7.38 620
7.4 609
7.42 597
7.44 597
7.46 598
7.48 590
7.5 604
7.52 582
7.54 597
7.56 610
7.58 590
7.6 629
7.62 603
7.64 562
7.66 632
7.68 595
7.7 563
7.72 613
7.74 600
7.76 584
7.78 615
7.8 586
7.82 562
7.84 622
7.86 554
7.88 590
7.9 566
7.92 605
7.94 611
7.96 585
7.98 557
8 584
8.02 550
8.04 575
8.06 614
8.08 552
8.1 573
8.12 578
8.14 563
8.16 562
8.18 595
8.2 552
8.22 598
8.24 563
8.26 554
8.28 581
8.3 591
8.32 551
8.34 524
8.36 555
8.38 545
8.4 589
8.42 578
8.44 575
8.46 595
8.48 563
8.5 544
8.52 557
8.54 553
8.56 542
8.58 536
8.6 563
8.62 582
8.64 552
8.66 543
8.68 552
8.7 554
8.72 502
8.74 529
8.76 554
8.78 525
8.8 567
8.82 536
8.84 577
8.86 541
8.88 499
8.9 518
8.92 551
8.94 579
8.96 564
8.98 577
9 534
9.02 596
9.04 568
9.06 552
9.08 593
9.1 556
9.12 564
9.14 576
9.16 589
9.18 618
9.2 597
9.22 625
9.24 607
9.26 656
9.28 655
9.3 651
9.32 739
9.34 734
9.36 783
9.38 715
9.4 673
9.42 586
9.44 628
9.46 582
9.48 602
9.5 585
9.52 574
9.54 493
9.56 566
9.58 558
9.6 561
9.62 558
9.64 556
9.66 546
9.68 531
9.7 495
9.72 533
9.74 523
9.76 546
9.78 515
9.8 551
9.82 551
9.84 500
9.86 542
9.88 525
9.9 545
9.92 533
9.94 527
9.96 548
9.98 558
10 519
10.02 520
10.04 512
10.06 492
10.08 563
10.1 540
10.12 519
10.14 550
10.16 522
10.18 535
10.2 523
10.22 545
10.24 505
10.26 488
10.28 509
10.3 522
10.32 493
10.34 533
10.36 509
10.38 534
10.4 520
10.42 504
10.44 472
10.46 512
10.48 528
10.5 527
10.52 537
10.54 523
10.56 524
10.58 539
10.6 525
10.62 520
10.64 544
10.66 564
10.68 530
10.7 580
10.72 579
10.74 586
10.76 644
10.78 590
10.8 606
10.82 614
10.84 597
10.86 551
10.88 528
10.9 528
10.92 551
10.94 515
10.96 538
10.98 511
11 502
11.02 531
11.04 526
11.06 502
11.08 474
11.1 516
11.12 504
11.14 496
11.16 503
11.18 494
11.2 470
11.22 477
11.24 495
11.26 504
11.28 480
11.3 455
11.32 471
11.34 475
11.36 501
11.38 504
11.4 457
11.42 473
11.44 485
11.46 517
11.48 500
11.5 491
11.52 491
11.54 489
11.56 492
11.58 496
11.6 475
11.62 452
11.64 489
11.66 484
11.68 491
11.7 466
11.72 518
11.74 509
11.76 497
11.78 448
11.8 507
11.82 514
11.84 485
11.86 491
11.88 516
11.9 497
11.92 475
11.94 484
11.96 481
11.98 434
12 467
12.02 475
12.04 506
12.06 464
12.08 496
12.1 478
12.12 483
12.14 508
12.16 484
12.18 525
12.2 495
12.22 484
12.24 485
12.26 492
12.28 507
12.3 487
12.32 492
12.34 502
12.36 507
12.38 504
12.4 522
12.42 477
12.44 520
12.46 519
12.48 507
12.5 537
12.52 493
12.54 522
12.56 501
12.58 487
12.6 523
12.62 493
12.64 501
12.66 502
12.68 506
12.7 505
12.72 503
12.74 489
12.76 488
12.78 496
12.8 512
12.82 537
12.84 503
12.86 488
12.88 469
12.9 468
12.92 509
12.94 522
12.96 490
12.98 469
13 517
13.02 513
13.04 513
13.06 518
13.08 521
13.1 538
13.12 503
13.14 541
13.16 538
13.18 522
13.2 552
13.22 489
13.24 505
13.26 551
13.28 543
13.3 503
13.32 488
13.34 514
13.36 507
13.38 503
13.4 522
13.42 497
13.44 518
13.46 503
13.48 514
13.5 505
13.52 539
13.54 495
13.56 496
13.58 523
13.6 513
13.62 520
13.64 488
13.66 504
13.68 484
13.7 544
13.72 502
13.74 526
13.76 521
13.78 466
13.8 478
13.82 537
13.84 533
13.86 547
13.88 468
13.9 498
13.92 495
13.94 538
13.96 545
13.98 530
14 517
14.02 508
14.04 554
14.06 534
14.08 502
14.1 468
14.12 508
14.14 507
14.16 478
14.18 516
14.2 542
14.22 526
14.24 501
14.26 537
14.28 565
14.3 557
14.32 535
14.34 509
14.36 538
14.38 560
14.4 560
14.42 466
14.44 552
14.46 520
14.48 565
14.5 540
14.52 548
14.54 553
14.56 556
14.58 561
14.6 564
14.62 534
14.64 515
14.66 504
14.68 541
14.7 528
14.72 551
14.74 534
14.76 528
14.78 541
14.8 543
14.82 550
14.84 544
14.86 572
14.88 554
14.9 540
14.92 551
14.94 528
14.96 530
14.98 559
15 530
15.02 520
15.04 516
15.06 581
15.08 551
15.1 593
15.12 554
15.14 570
15.16 561
15.18 558
15.2 513
15.22 547
15.24 541
15.26 565
15.28 563
15.3 576
15.32 530
15.34 558
15.36 554
15.38 526
15.4 577
15.42 546
15.44 597
15.46 526
15.48 532
15.5 549
15.52 568
15.54 582
15.56 581
15.58 526
15.6 586
15.62 575
15.64 588
15.66 551
15.68 529
15.7 541
15.72 549
15.74 571
15.76 585
15.78 575
15.8 557
15.82 631
15.84 555
15.86 538
15.88 587
15.9 583
15.92 552
15.94 590
15.96 592
15.98 618
16 599
16.02 616
16.04 605
16.06 568
16.08 571
16.1 591
16.12 607
16.14 587
16.16 602
16.18 618
16.2 592
16.22 575
16.24 616
16.26 595
16.28 573
16.3 614
16.32 615
16.34 572
16.36 597
16.38 596
16.4 640
16.42 609
16.44 632
16.46 604
16.48 619
16.5 601
16.52 626
16.54 642
16.56 642
16.58 618
16.6 677
16.62 610
16.64 636
16.66 652
16.68 622
16.7 635
16.72 684
16.74 674
16.76 666
16.78 648
16.8 670
16.82 698
16.84 700
16.86 768
16.88 747
16.9 831
16.92 828
16.94 919
16.96 983
16.98 1146
17 1384
17.02 1537
17.04 1524
17.06 1447
17.08 1204
17.1 1020
17.12 810
17.14 758
17.16 668
17.18 736
17.2 729
17.22 682
17.24 672
17.26 655
17.28 694
17.3 677
17.32 668
17.34 683
17.36 733
17.38 734
17.4 664
17.42 698
17.44 711
17.46 713
17.48 726
17.5 717
17.52 723
17.54 731
17.56 731
17.58 721
17.6 719
17.62 673
17.64 702
17.66 706
17.68 651
17.7 710
17.72 703
17.74 659
17.76 733
17.78 751
17.8 702
17.82 687
17.84 713
17.86 711
17.88 713
17.9 711
17.92 730
17.94 712
17.96 750
17.98 748
18 714
18.02 737
18.04 699
18.06 775
18.08 751
18.1 720
18.12 763
18.14 735
18.16 716
18.18 743
18.2 685
18.22 695
18.24 756
18.26 708
18.28 690
18.3 731
18.32 738
18.34 765
18.36 764
18.38 744
18.4 792
18.42 787
18.44 781
18.46 739
18.48 813
18.5 757
18.52 786
18.54 784
18.56 746
18.58 811
18.6 731
18.62 766
18.64 776
18.66 786
18.68 762
18.7 789
18.72 812
18.74 765
18.76 807
18.78 818
18.8 824
18.82 812
18.84 781
18.86 774
18.88 745
18.9 808
18.92 810
18.94 796
18.96 840
18.98 817
19 777
19.02 882
19.04 828
19.06 813
19.08 823
19.1 801
19.12 841
19.14 811
19.16 828
19.18 869
19.2 841
19.22 821
19.24 821
19.26 844
19.28 809
19.3 852
19.32 833
19.34 844
19.36 878
19.38 910
19.4 871
19.42 898
19.44 955
19.46 926
19.48 878
19.5 894
19.52 931
19.54 900
19.56 894
19.58 874
19.6 915
19.62 865
19.64 907
19.66 848
19.68 928
19.7 886
19.72 893
19.74 890
19.76 858
19.78 888
19.8 873
19.82 867
19.84 925
19.86 877
19.88 943
19.9 927
19.92 918
19.94 875
19.96 865
19.98 899
20 917