File: xrd-UiO-67/pxrddata/36-25.ASC
3 1448
3.02 1425
3.04 1426
3.06 1347
3.08 1333
3.1 1308
3.12 1347
3.14 1367
3.16 1288
3.18 1270
3.2 1299
3.22 1239
3.24 1309
3.26 1219
3.28 1203
3.3 1212
3.32 1168
3.34 1168
3.36 1208
3.38 1176
3.4 1181
3.42 1143
3.44 1143
3.46 1102
3.48 1130
3.5 1139
3.52 1163
3.54 1101
3.56 1184
3.58 1107
3.6 1118
3.62 1127
3.64 1185
3.66 1136
3.68 1096
3.7 1053
3.72 1151
3.74 1101
3.76 1057
3.78 1087
3.8 1040
3.82 1056
3.84 1001
3.86 1102
3.88 1085
3.9 1106
3.92 1047
3.94 1062
3.96 1060
3.98 1011
4 1042
4.02 1022
4.04 1047
4.06 1046
4.08 981
4.1 1055
4.12 1025
4.14 961
4.16 1025
4.18 981
4.2 1017
4.22 1027
4.24 1033
4.26 1005
4.28 1005
4.3 986
4.32 909
4.34 958
4.36 943
4.38 1019
4.4 1011
4.42 1054
4.44 1006
4.46 988
4.48 958
4.5 1028
4.52 967
4.54 987
4.56 1023
4.58 989
4.6 998
4.62 1008
4.64 983
4.66 983
4.68 982
4.7 1015
4.72 1014
4.74 915
4.76 989
4.78 982
4.8 937
4.82 912
4.84 978
4.86 945
4.88 937
4.9 894
4.92 965
4.94 937
4.96 984
4.98 1018
5 950
5.02 954
5.04 960
5.06 944
5.08 977
5.1 977
5.12 990
5.14 922
5.16 977
5.18 1016
5.2 965
5.22 956
5.24 958
5.26 1010
5.28 1037
5.3 994
5.32 1008
5.34 1035
5.36 1019
5.38 1101
5.4 1127
5.42 1196
5.44 1203
5.46 1295
5.48 1373
5.5 1417
5.52 1424
5.54 1325
5.56 1220
5.58 1204
5.6 1070
5.62 1001
5.64 884
5.66 877
5.68 937
5.7 890
5.72 843
5.74 830
5.76 851
5.78 800
5.8 799
5.82 755
5.84 794
5.86 764
5.88 761
5.9 773
5.92 720
5.94 718
5.96 723
5.98 675
6 708
6.02 696
6.04 723
6.06 695
6.08 693
6.1 634
6.12 694
6.14 648
6.16 676
6.18 619
6.2 682
6.22 662
6.24 634
6.26 604
6.28 636
6.3 613
6.32 605
6.34 595
6.36 583
6.38 633
6.4 600
6.42 616
6.44 599
6.46 612
6.48 563
6.5 579
6.52 584
6.54 570
6.56 614
6.58 570
6.6 582
6.62 601
6.64 597
6.66 591
6.68 585
6.7 592
6.72 588
6.74 574
6.76 566
6.78 576
6.8 556
6.82 535
6.84 545
6.86 519
6.88 508
6.9 529
6.92 543
6.94 576
6.96 516
6.98 599
7 549
7.02 529
7.04 535
7.06 549
7.08 503
7.1 545
7.12 525
7.14 533
7.16 506
7.18 547
7.2 545
7.22 539
7.24 506
7.26 523
7.28 516
7.3 511
7.32 509
7.34 488
7.36 519
7.38 464
7.4 470
7.42 505
7.44 517
7.46 499
7.48 500
7.5 507
7.52 466
7.54 494
7.56 509
7.58 475
7.6 475
7.62 513
7.64 475
7.66 475
7.68 494
7.7 482
7.72 456
7.74 505
7.76 485
7.78 495
7.8 452
7.82 490
7.84 489
7.86 487
7.88 498
7.9 508
7.92 522
7.94 488
7.96 510
7.98 494
8 505
8.02 513
8.04 475
8.06 467
8.08 502
8.1 490
8.12 470
8.14 486
8.16 483
8.18 455
8.2 469
8.22 464
8.24 491
8.26 442
8.28 491
8.3 457
8.32 484
8.34 464
8.36 503
8.38 500
8.4 468
8.42 479
8.44 483
8.46 436
8.48 453
8.5 525
8.52 480
8.54 491
8.56 493
8.58 456
8.6 474
8.62 491
8.64 420
8.66 490
8.68 486
8.7 446
8.72 464
8.74 438
8.76 472
8.78 475
8.8 481
8.82 456
8.84 470
8.86 467
8.88 463
8.9 472
8.92 487
8.94 481
8.96 460
8.98 484
9 441
9.02 464
9.04 425
9.06 479
9.08 420
9.1 455
9.12 468
9.14 489
9.16 491
9.18 503
9.2 486
9.22 498
9.24 444
9.26 501
9.28 534
9.3 513
9.32 524
9.34 561
9.36 561
9.38 581
9.4 602
9.42 627
9.44 607
9.46 554
9.48 568
9.5 534
9.52 518
9.54 520
9.56 472
9.58 446
9.6 470
9.62 480
9.64 471
9.66 452
9.68 432
9.7 459
9.72 413
9.74 455
9.76 436
9.78 446
9.8 432
9.82 446
9.84 440
9.86 451
9.88 445
9.9 406
9.92 455
9.94 422
9.96 429
9.98 433
10 438
10.02 419
10.04 434
10.06 422
10.08 419
10.1 463
10.12 438
10.14 436
10.16 427
10.18 465
10.2 478
10.22 466
10.24 431
10.26 452
10.28 422
10.3 449
10.32 436
10.34 432
10.36 427
10.38 470
10.4 432
10.42 435
10.44 437
10.46 397
10.48 423
10.5 457
10.52 474
10.54 423
10.56 464
10.58 435
10.6 438
10.62 462
10.64 477
10.66 417
10.68 456
10.7 479
10.72 473
10.74 502
10.76 455
10.78 493
10.8 500
10.82 503
10.84 532
10.86 523
10.88 508
10.9 497
10.92 467
10.94 502
10.96 441
10.98 437
11 466
11.02 474
11.04 432
11.06 467
11.08 448
11.1 436
11.12 412
11.14 489
11.16 437
11.18 397
11.2 416
11.22 453
11.24 423
11.26 447
11.28 404
11.3 418
11.32 419
11.34 437
11.36 441
11.38 433
11.4 449
11.42 383
11.44 420
11.46 405
11.48 436
11.5 430
11.52 410
11.54 452
11.56 422
11.58 400
11.6 457
11.62 426
11.64 440
11.66 377
11.68 422
11.7 443
11.72 423
11.74 437
11.76 450
11.78 409
11.8 445
11.82 438
11.84 459
11.86 423
11.88 408
11.9 466
11.92 416
11.94 417
11.96 398
11.98 390
12 444
12.02 447
12.04 412
12.06 450
12.08 433
12.1 517
12.12 442
12.14 463
12.16 461
12.18 438
12.2 445
12.22 460
12.24 440
12.26 449
12.28 466
12.3 453
12.32 463
12.34 459
12.36 444
12.38 432
12.4 425
12.42 456
12.44 430
12.46 433
12.48 444
12.5 431
12.52 453
12.54 423
12.56 427
12.58 448
12.6 427
12.62 469
12.64 446
12.66 443
12.68 445
12.7 434
12.72 462
12.74 450
12.76 420
12.78 444
12.8 415
12.82 482
12.84 483
12.86 449
12.88 413
12.9 420
12.92 443
12.94 405
12.96 412
12.98 439
13 468
13.02 451
13.04 449
13.06 428
13.08 460
13.1 439
13.12 436
13.14 427
13.16 449
13.18 437
13.2 463
13.22 460
13.24 485
13.26 466
13.28 500
13.3 480
13.32 494
13.34 465
13.36 466
13.38 456
13.4 496
13.42 469
13.44 463
13.46 481
13.48 438
13.5 467
13.52 489
13.54 441
13.56 473
13.58 447
13.6 427
13.62 502
13.64 473
13.66 450
13.68 462
13.7 473
13.72 487
13.74 485
13.76 442
13.78 515
13.8 471
13.82 469
13.84 478
13.86 489
13.88 444
13.9 518
13.92 445
13.94 459
13.96 465
13.98 430
14 465
14.02 468
14.04 479
14.06 488
14.08 497
14.1 500
14.12 486
14.14 475
14.16 487
14.18 449
14.2 462
14.22 490
14.24 470
14.26 491
14.28 499
14.3 509
14.32 512
14.34 496
14.36 472
14.38 521
14.4 498
14.42 460
14.44 487
14.46 476
14.48 467
14.5 485
14.52 470
14.54 511
14.56 468
14.58 533
14.6 519
14.62 490
14.64 507
14.66 506
14.68 489
14.7 496
14.72 505
14.74 458
14.76 501
14.78 449
14.8 484
14.82 482
14.84 508
14.86 506
14.88 508
14.9 476
14.92 462
14.94 460
14.96 489
14.98 492
15 483
15.02 489
15.04 469
15.06 485
15.08 520
15.1 507
15.12 517
15.14 464
15.16 497
15.18 494
15.2 519
15.22 516
15.24 499
15.26 476
15.28 521
15.3 508
15.32 537
15.34 525
15.36 554
15.38 531
15.4 536
15.42 522
15.44 543
15.46 541
15.48 539
15.5 523
15.52 527
15.54 503
15.56 547
15.58 542
15.6 506
15.62 503
15.64 543
15.66 512
15.68 536
15.7 567
15.72 569
15.74 543
15.76 534
15.78 529
15.8 528
15.82 570
15.84 534
15.86 545
15.88 508
15.9 503
15.92 491
15.94 554
15.96 531
15.98 521
16 536
16.02 513
16.04 562
16.06 542
16.08 529
16.1 573
16.12 535
16.14 558
16.16 571
16.18 546
16.2 589
16.22 547
16.24 575
16.26 565
16.28 549
16.3 528
16.32 559
16.34 581
16.36 556
16.38 580
16.4 536
16.42 543
16.44 587
16.46 523
16.48 546
16.5 605
16.52 604
16.54 591
16.56 625
16.58 581
16.6 585
16.62 606
16.64 601
16.66 615
16.68 589
16.7 601
16.72 591
16.74 585
16.76 620
16.78 584
16.8 604
16.82 641
16.84 625
16.86 691
16.88 730
16.9 734
16.92 758
16.94 780
16.96 914
16.98 1062
17 1421
17.02 1802
17.04 1987
17.06 2342
17.08 2568
17.1 2355
17.12 1822
17.14 1595
17.16 1181
17.18 980
17.2 890
17.22 795
17.24 716
17.26 675
17.28 657
17.3 653
17.32 649
17.34 652
17.36 618
17.38 640
17.4 617
17.42 692
17.44 663
17.46 687
17.48 649
17.5 714
17.52 666
17.54 642
17.56 695
17.58 682
17.6 646
17.62 656
17.64 658
17.66 685
17.68 658
17.7 709
17.72 737
17.74 648
17.76 672
17.78 705
17.8 684
17.82 639
17.84 663
17.86 697
17.88 730
17.9 687
17.92 658
17.94 651
17.96 666
17.98 697
18 777
18.02 671
18.04 722
18.06 684
18.08 725
18.1 695
18.12 722
18.14 688
18.16 715
18.18 667
18.2 697
18.22 688
18.24 714
18.26 737
18.28 688
18.3 693
18.32 692
18.34 698
18.36 733
18.38 705
18.4 743
18.42 740
18.44 714
18.46 771
18.48 751
18.5 738
18.52 768
18.54 719
18.56 746
18.58 732
18.6 734
18.62 683
18.64 751
18.66 738
18.68 718
18.7 708
18.72 780
18.74 809
18.76 790
18.78 781
18.8 825
18.82 794
18.84 774
18.86 768
18.88 781
18.9 812
18.92 804
18.94 780
18.96 798
18.98 773
19 754
19.02 784
19.04 792
19.06 818
19.08 816
19.1 777
19.12 797
19.14 759
19.16 746
19.18 792
19.2 784
19.22 823
19.24 817
19.26 823
19.28 797
19.3 820
19.32 846
19.34 832
19.36 784
19.38 805
19.4 819
19.42 863
19.44 876
19.46 846
19.48 879
19.5 857
19.52 839
19.54 885
19.56 886
19.58 877
19.6 849
19.62 886
19.64 871
19.66 870
19.68 788
19.7 844
19.72 879
19.74 849
19.76 851
19.78 840
19.8 878
19.82 879
19.84 871
19.86 846
19.88 863
19.9 847
19.92 879
19.94 871
19.96 855
19.98 887
20 902