File: xrd-UiO-67/pxrddata/36-20.ASC
3 2553
3.02 2409
3.04 2268
3.06 2304
3.08 2280
3.1 2200
3.12 2129
3.14 2072
3.16 2099
3.18 2011
3.2 2069
3.22 2029
3.24 1977
3.26 2010
3.28 1987
3.3 1956
3.32 1885
3.34 1847
3.36 1819
3.38 1809
3.4 1818
3.42 1785
3.44 1813
3.46 1678
3.48 1700
3.5 1696
3.52 1614
3.54 1600
3.56 1647
3.58 1622
3.6 1657
3.62 1606
3.64 1545
3.66 1525
3.68 1540
3.7 1499
3.72 1550
3.74 1490
3.76 1528
3.78 1443
3.8 1529
3.82 1426
3.84 1449
3.86 1433
3.88 1382
3.9 1354
3.92 1321
3.94 1292
3.96 1324
3.98 1260
4 1326
4.02 1285
4.04 1303
4.06 1237
4.08 1221
4.1 1247
4.12 1228
4.14 1219
4.16 1173
4.18 1231
4.2 1240
4.22 1125
4.24 1126
4.26 1172
4.28 1138
4.3 1196
4.32 1120
4.34 1108
4.36 1136
4.38 1099
4.4 1066
4.42 1018
4.44 1051
4.46 1073
4.48 1104
4.5 1060
4.52 997
4.54 1039
4.56 990
4.58 1022
4.6 959
4.62 1000
4.64 987
4.66 1020
4.68 949
4.7 913
4.72 918
4.74 953
4.76 958
4.78 926
4.8 888
4.82 901
4.84 910
4.86 902
4.88 952
4.9 901
4.92 885
4.94 899
4.96 902
4.98 872
5 818
5.02 854
5.04 869
5.06 842
5.08 849
5.1 834
5.12 878
5.14 852
5.16 819
5.18 815
5.2 754
5.22 744
5.24 768
5.26 836
5.28 833
5.3 803
5.32 734
5.34 786
5.36 741
5.38 779
5.4 781
5.42 714
5.44 755
5.46 728
5.48 761
5.5 730
5.52 746
5.54 775
5.56 725
5.58 742
5.6 738
5.62 734
5.64 732
5.66 737
5.68 741
5.7 696
5.72 703
5.74 711
5.76 728
5.78 707
5.8 764
5.82 687
5.84 697
5.86 710
5.88 687
5.9 707
5.92 656
5.94 780
5.96 627
5.98 668
6 709
6.02 627
6.04 668
6.06 651
6.08 659
6.1 653
6.12 686
6.14 628
6.16 674
6.18 651
6.2 660
6.22 643
6.24 624
6.26 625
6.28 655
6.3 614
6.32 641
6.34 688
6.36 661
6.38 678
6.4 621
6.42 602
6.44 623
6.46 627
6.48 639
6.5 687
6.52 640
6.54 643
6.56 633
6.58 627
6.6 598
6.62 637
6.64 649
6.66 619
6.68 584
6.7 581
6.72 596
6.74 612
6.76 585
6.78 626
6.8 579
6.82 630
6.84 623
6.86 604
6.88 634
6.9 566
6.92 612
6.94 553
6.96 598
6.98 616
7 580
7.02 591
7.04 604
7.06 603
7.08 580
7.1 623
7.12 569
7.14 579
7.16 613
7.18 580
7.2 594
7.22 578
7.24 585
7.26 596
7.28 567
7.3 527
7.32 584
7.34 557
7.36 580
7.38 571
7.4 560
7.42 567
7.44 577
7.46 553
7.48 551
7.5 560
7.52 556
7.54 519
7.56 544
7.58 555
7.6 545
7.62 542
7.64 529
7.66 546
7.68 514
7.7 529
7.72 557
7.74 564
7.76 544
7.78 550
7.8 554
7.82 530
7.84 537
7.86 547
7.88 483
7.9 527
7.92 537
7.94 508
7.96 532
7.98 535
8 527
8.02 535
8.04 579
8.06 559
8.08 535
8.1 512
8.12 544
8.14 515
8.16 494
8.18 513
8.2 505
8.22 505
8.24 515
8.26 497
8.28 532
8.3 539
8.32 531
8.34 499
8.36 526
8.38 510
8.4 526
8.42 517
8.44 486
8.46 518
8.48 486
8.5 525
8.52 488
8.54 508
8.56 509
8.58 531
8.6 483
8.62 545
8.64 501
8.66 491
8.68 493
8.7 538
8.72 476
8.74 475
8.76 518
8.78 475
8.8 507
8.82 505
8.84 509
8.86 478
8.88 479
8.9 486
8.92 505
8.94 516
8.96 503
8.98 497
9 470
9.02 483
9.04 486
9.06 486
9.08 488
9.1 498
9.12 514
9.14 482
9.16 425
9.18 497
9.2 473
9.22 487
9.24 502
9.26 469
9.28 528
9.3 511
9.32 492
9.34 461
9.36 458
9.38 480
9.4 461
9.42 479
9.44 502
9.46 502
9.48 497
9.5 501
9.52 556
9.54 484
9.56 501
9.58 514
9.6 463
9.62 494
9.64 480
9.66 496
9.68 485
9.7 483
9.72 436
9.74 475
9.76 490
9.78 476
9.8 456
9.82 441
9.84 491
9.86 497
9.88 468
9.9 469
9.92 490
9.94 476
9.96 497
9.98 458
10 502
10.02 461
10.04 472
10.06 469
10.08 470
10.1 454
10.12 503
10.14 459
10.16 449
10.18 502
10.2 490
10.22 474
10.24 491
10.26 511
10.28 448
10.3 454
10.32 477
10.34 451
10.36 479
10.38 457
10.4 506
10.42 450
10.44 497
10.46 442
10.48 451
10.5 464
10.52 494
10.54 482
10.56 473
10.58 492
10.6 474
10.62 474
10.64 465
10.66 462
10.68 462
10.7 439
10.72 439
10.74 522
10.76 499
10.78 459
10.8 457
10.82 490
10.84 442
10.86 454
10.88 469
10.9 472
10.92 458
10.94 478
10.96 454
10.98 476
11 432
11.02 434
11.04 420
11.06 470
11.08 442
11.1 469
11.12 493
11.14 507
11.16 445
11.18 484
11.2 447
11.22 420
11.24 461
11.26 495
11.28 470
11.3 469
11.32 479
11.34 455
11.36 457
11.38 483
11.4 485
11.42 475
11.44 495
11.46 430
11.48 453
11.5 458
11.52 500
11.54 463
11.56 483
11.58 470
11.6 469
11.62 469
11.64 484
11.66 504
11.68 485
11.7 468
11.72 474
11.74 459
11.76 448
11.78 426
11.8 522
11.82 481
11.84 513
11.86 452
11.88 458
11.9 480
11.92 483
11.94 431
11.96 443
11.98 442
12 494
12.02 427
12.04 479
12.06 469
12.08 477
12.1 475
12.12 467
12.14 467
12.16 500
12.18 484
12.2 440
12.22 456
12.24 523
12.26 487
12.28 495
12.3 481
12.32 444
12.34 479
12.36 467
12.38 461
12.4 490
12.42 437
12.44 488
12.46 439
12.48 432
12.5 504
12.52 473
12.54 521
12.56 442
12.58 479
12.6 471
12.62 466
12.64 469
12.66 436
12.68 514
12.7 513
12.72 493
12.74 460
12.76 480
12.78 461
12.8 443
12.82 443
12.84 507
12.86 519
12.88 474
12.9 502
12.92 503
12.94 497
12.96 475
12.98 501
13 505
13.02 469
13.04 494
13.06 478
13.08 462
13.1 498
13.12 486
13.14 508
13.16 488
13.18 532
13.2 543
13.22 554
13.24 543
13.26 510
13.28 550
13.3 536
13.32 532
13.34 488
13.36 483
13.38 491
13.4 477
13.42 476
13.44 498
13.46 493
13.48 471
13.5 496
13.52 536
13.54 539
13.56 481
13.58 518
13.6 484
13.62 505
13.64 486
13.66 497
13.68 541
13.7 507
13.72 517
13.74 502
13.76 502
13.78 504
13.8 561
13.82 558
13.84 519
13.86 521
13.88 533
13.9 526
13.92 509
13.94 514
13.96 543
13.98 524
14 543
14.02 534
14.04 516
14.06 501
14.08 520
14.1 522
14.12 512
14.14 518
14.16 519
14.18 486
14.2 499
14.22 525
14.24 528
14.26 503
14.28 570
14.3 548
14.32 539
14.34 557
14.36 550
14.38 515
14.4 537
14.42 557
14.44 563
14.46 530
14.48 541
14.5 547
14.52 538
14.54 585
14.56 596
14.58 570
14.6 550
14.62 544
14.64 563
14.66 586
14.68 539
14.7 557
14.72 533
14.74 540
14.76 569
14.78 526
14.8 525
14.82 566
14.84 572
14.86 562
14.88 560
14.9 573
14.92 538
14.94 552
14.96 569
14.98 571
15 570
15.02 574
15.04 579
15.06 581
15.08 549
15.1 543
15.12 574
15.14 558
15.16 548
15.18 602
15.2 586
15.22 551
15.24 605
15.26 624
15.28 583
15.3 587
15.32 609
15.34 590
15.36 595
15.38 599
15.4 585
15.42 572
15.44 550
15.46 576
15.48 552
15.5 600
15.52 632
15.54 585
15.56 630
15.58 641
15.6 597
15.62 591
15.64 576
15.66 634
15.68 608
15.7 599
15.72 636
15.74 635
15.76 621
15.78 644
15.8 651
15.82 629
15.84 618
15.86 614
15.88 632
15.9 589
15.92 718
15.94 614
15.96 649
15.98 619
16 648
16.02 636
16.04 633
16.06 648
16.08 647
16.1 656
16.12 611
16.14 669
16.16 668
16.18 625
16.2 614
16.22 667
16.24 650
16.26 668
16.28 676
16.3 725
16.32 670
16.34 687
16.36 640
16.38 669
16.4 695
16.42 688
16.44 687
16.46 702
16.48 687
16.5 731
16.52 690
16.54 725
16.56 708
16.58 692
16.6 776
16.62 703
16.64 747
16.66 766
16.68 765
16.7 799
16.72 800
16.74 830
16.76 837
16.78 963
16.8 1016
16.82 979
16.84 1161
16.86 1305
16.88 1430
16.9 1645
16.92 1865
16.94 2142
16.96 2409
16.98 2514
17 2593
17.02 2504
17.04 2091
17.06 1837
17.08 1408
17.1 1200
17.12 1087
17.14 959
17.16 864
17.18 817
17.2 760
17.22 834
17.24 798
17.26 805
17.28 747
17.3 817
17.32 741
17.34 727
17.36 800
17.38 767
17.4 725
17.42 791
17.44 811
17.46 756
17.48 801
17.5 730
17.52 735
17.54 819
17.56 764
17.58 771
17.6 799
17.62 779
17.64 785
17.66 803
17.68 818
17.7 794
17.72 769
17.74 724
17.76 778
17.78 813
17.8 785
17.82 794
17.84 864
17.86 738
17.88 791
17.9 802
17.92 812
17.94 803
17.96 783
17.98 830
18 856
18.02 854
18.04 846
18.06 832
18.08 791
18.1 824
18.12 847
18.14 833
18.16 807
18.18 864
18.2 841
18.22 836
18.24 806
18.26 869
18.28 888
18.3 860
18.32 882
18.34 847
18.36 858
18.38 873
18.4 880
18.42 828
18.44 908
18.46 841
18.48 879
18.5 855
18.52 885
18.54 898
18.56 875
18.58 1011
18.6 853
18.62 907
18.64 966
18.66 891
18.68 958
18.7 899
18.72 892
18.74 901
18.76 971
18.78 920
18.8 921
18.82 918
18.84 936
18.86 943
18.88 900
18.9 891
18.92 940
18.94 952
18.96 976
18.98 988
19 954
19.02 939
19.04 969
19.06 948
19.08 967
19.1 963
19.12 959
19.14 974
19.16 972
19.18 1002
19.2 966
19.22 995
19.24 986
19.26 953
19.28 1029
19.3 1002
19.32 946
19.34 959
19.36 950
19.38 974
19.4 958
19.42 990
19.44 980
19.46 978
19.48 992
19.5 944
19.52 1049
19.54 986
19.56 1005
19.58 962
19.6 1047
19.62 1044
19.64 975
19.66 998
19.68 1053
19.7 1028
19.72 1078
19.74 1032
19.76 1025
19.78 1010
19.8 1054
19.82 1062
19.84 1081
19.86 1046
19.88 1109
19.9 1064
19.92 1033
19.94 1059
19.96 1029
19.98 1057
20 1033