File: xrd-UiO-67/pxrddata/36-26.ASC
3 395
3.02 428
3.04 360
3.06 358
3.08 361
3.1 334
3.12 324
3.14 348
3.16 360
3.18 354
3.2 348
3.22 275
3.24 343
3.26 321
3.28 308
3.3 329
3.32 310
3.34 321
3.36 343
3.38 342
3.4 346
3.42 344
3.44 355
3.46 301
3.48 317
3.5 328
3.52 337
3.54 319
3.56 348
3.58 308
3.6 360
3.62 338
3.64 340
3.66 348
3.68 368
3.7 347
3.72 319
3.74 338
3.76 347
3.78 344
3.8 373
3.82 347
3.84 346
3.86 360
3.88 366
3.9 364
3.92 366
3.94 346
3.96 363
3.98 361
4 428
4.02 378
4.04 354
4.06 386
4.08 369
4.1 371
4.12 381
4.14 397
4.16 351
4.18 382
4.2 386
4.22 379
4.24 400
4.26 396
4.28 399
4.3 405
4.32 380
4.34 394
4.36 408
4.38 382
4.4 384
4.42 426
4.44 422
4.46 436
4.48 413
4.5 424
4.52 426
4.54 440
4.56 423
4.58 397
4.6 432
4.62 429
4.64 427
4.66 430
4.68 413
4.7 417
4.72 425
4.74 432
4.76 458
4.78 507
4.8 441
4.82 466
4.84 469
4.86 464
4.88 425
4.9 455
4.92 423
4.94 495
4.96 455
4.98 492
5 439
5.02 459
5.04 453
5.06 459
5.08 484
5.1 437
5.12 444
5.14 497
5.16 492
5.18 459
5.2 489
5.22 445
5.24 454
5.26 479
5.28 455
5.3 473
5.32 468
5.34 432
5.36 470
5.38 461
5.4 519
5.42 494
5.44 478
5.46 491
5.48 484
5.5 486
5.52 501
5.54 531
5.56 496
5.58 529
5.6 515
5.62 525
5.64 556
5.66 518
5.68 486
5.7 531
5.72 503
5.74 533
5.76 505
5.78 448
5.8 443
5.82 427
5.84 413
5.86 427
5.88 409
5.9 350
5.92 352
5.94 336
5.96 330
5.98 339
6 323
6.02 314
6.04 307
6.06 306
6.08 290
6.1 275
6.12 291
6.14 321
6.16 316
6.18 292
6.2 272
6.22 281
6.24 289
6.26 292
6.28 276
6.3 261
6.32 273
6.34 238
6.36 275
6.38 273
6.4 263
6.42 245
6.44 252
6.46 253
6.48 266
6.5 267
6.52 271
6.54 237
6.56 276
6.58 293
6.6 261
6.62 244
6.64 222
6.66 259
6.68 232
6.7 247
6.72 216
6.74 249
6.76 234
6.78 248
6.8 231
6.82 240
6.84 263
6.86 241
6.88 226
6.9 214
6.92 206
6.94 224
6.96 241
6.98 225
7 262
7.02 237
7.04 220
7.06 215
7.08 256
7.1 220
7.12 213
7.14 222
7.16 253
7.18 200
7.2 215
7.22 219
7.24 223
7.26 228
7.28 243
7.3 202
7.32 217
7.34 192
7.36 195
7.38 202
7.4 248
7.42 231
7.44 221
7.46 212
7.48 228
7.5 229
7.52 224
7.54 221
7.56 195
7.58 236
7.6 237
7.62 229
7.64 217
7.66 179
7.68 227
7.7 241
7.72 232
7.74 199
7.76 212
7.78 228
7.8 212
7.82 197
7.84 206
7.86 218
7.88 213
7.9 202
7.92 226
7.94 222
7.96 200
7.98 192
8 194
8.02 197
8.04 216
8.06 219
8.08 196
8.1 191
8.12 199
8.14 211
8.16 236
8.18 226
8.2 222
8.22 183
8.24 217
8.26 199
8.28 201
8.3 202
8.32 198
8.34 194
8.36 208
8.38 213
8.4 212
8.42 184
8.44 207
8.46 226
8.48 227
8.5 199
8.52 213
8.54 194
8.56 211
8.58 204
8.6 212
8.62 217
8.64 204
8.66 191
8.68 206
8.7 189
8.72 214
8.74 205
8.76 187
8.78 173
8.8 188
8.82 211
8.84 214
8.86 194
8.88 212
8.9 205
8.92 207
8.94 191
8.96 211
8.98 224
9 206
9.02 223
9.04 195
9.06 186
9.08 210
9.1 200
9.12 186
9.14 201
9.16 186
9.18 192
9.2 194
9.22 199
9.24 198
9.26 200
9.28 198
9.3 209
9.32 198
9.34 216
9.36 220
9.38 213
9.4 194
9.42 231
9.44 203
9.46 196
9.48 206
9.5 264
9.52 202
9.54 216
9.56 218
9.58 218
9.6 228
9.62 217
9.64 214
9.66 232
9.68 224
9.7 193
9.72 206
9.74 212
9.76 194
9.78 192
9.8 201
9.82 205
9.84 195
9.86 196
9.88 182
9.9 213
9.92 187
9.94 204
9.96 176
9.98 187
10 191
10.02 181
10.04 157
10.06 179
10.08 210
10.1 222
10.12 184
10.14 199
10.16 174
10.18 171
10.2 168
10.22 182
10.24 189
10.26 160
10.28 192
10.3 188
10.32 171
10.34 175
10.36 186
10.38 168
10.4 175
10.42 182
10.44 168
10.46 169
10.48 184
10.5 169
10.52 179
10.54 190
10.56 201
10.58 193
10.6 209
10.62 168
10.64 182
10.66 189
10.68 183
10.7 187
10.72 196
10.74 181
10.76 190
10.78 182
10.8 175
10.82 178
10.84 189
10.86 185
10.88 167
10.9 184
10.92 163
10.94 158
10.96 191
10.98 206
11 171
11.02 161
11.04 180
11.06 193
11.08 172
11.1 168
11.12 160
11.14 199
11.16 187
11.18 183
11.2 183
11.22 177
11.24 182
11.26 180
11.28 170
11.3 187
11.32 168
11.34 164
11.36 178
11.38 201
11.4 174
11.42 175
11.44 160
11.46 169
11.48 179
11.5 157
11.52 168
11.54 193
11.56 150
11.58 160
11.6 178
11.62 164
11.64 159
11.66 182
11.68 169
11.7 176
11.72 144
11.74 147
11.76 145
11.78 155
11.8 171
11.82 175
11.84 169
11.86 165
11.88 180
11.9 189
11.92 185
11.94 148
11.96 168
11.98 170
12 164
12.02 172
12.04 170
12.06 163
12.08 195
12.1 168
12.12 182
12.14 153
12.16 158
12.18 152
12.2 158
12.22 172
12.24 168
12.26 176
12.28 141
12.3 161
12.32 157
12.34 157
12.36 168
12.38 176
12.4 179
12.42 149
12.44 154
12.46 175
12.48 176
12.5 158
12.52 158
12.54 165
12.56 154
12.58 172
12.6 169
12.62 147
12.64 187
12.66 164
12.68 154
12.7 172
12.72 176
12.74 166
12.76 169
12.78 158
12.8 141
12.82 143
12.84 176
12.86 162
12.88 196
12.9 177
12.92 176
12.94 174
12.96 149
12.98 166
13 140
13.02 162
13.04 129
13.06 174
13.08 170
13.1 167
13.12 155
13.14 166
13.16 191
13.18 175
13.2 175
13.22 164
13.24 199
13.26 168
13.28 174
13.3 196
13.32 150
13.34 159
13.36 172
13.38 149
13.4 151
13.42 171
13.44 162
13.46 161
13.48 174
13.5 172
13.52 170
13.54 171
13.56 177
13.58 170
13.6 177
13.62 161
13.64 180
13.66 175
13.68 162
13.7 175
13.72 148
13.74 166
13.76 166
13.78 145
13.8 138
13.82 156
13.84 145
13.86 153
13.88 154
13.9 153
13.92 174
13.94 176
13.96 160
13.98 178
14 181
14.02 175
14.04 168
14.06 163
14.08 182
14.1 160
14.12 182
14.14 163
14.16 158
14.18 143
14.2 176
14.22 163
14.24 158
14.26 166
14.28 168
14.3 174
14.32 163
14.34 171
14.36 163
14.38 178
14.4 161
14.42 161
14.44 164
14.46 173
14.48 187
14.5 147
14.52 163
14.54 170
14.56 160
14.58 160
14.6 173
14.62 178
14.64 172
14.66 149
14.68 169
14.7 171
14.72 161
14.74 172
14.76 158
14.78 162
14.8 168
14.82 173
14.84 170
14.86 148
14.88 149
14.9 155
14.92 142
14.94 163
14.96 145
14.98 164
15 152
15.02 172
15.04 149
15.06 151
15.08 162
15.1 177
15.12 161
15.14 144
15.16 142
15.18 157
15.2 152
15.22 172
15.24 165
15.26 168
15.28 151
15.3 170
15.32 186
15.34 155
15.36 152
15.38 189
15.4 156
15.42 180
15.44 180
15.46 165
15.48 175
15.5 180
15.52 146
15.54 153
15.56 186
15.58 174
15.6 160
15.62 169
15.64 160
15.66 152
15.68 156
15.7 162
15.72 184
15.74 171
15.76 154
15.78 181
15.8 185
15.82 166
15.84 147
15.86 167
15.88 183
15.9 184
15.92 158
15.94 175
15.96 164
15.98 185
16 172
16.02 183
16.04 166
16.06 166
16.08 187
16.1 174
16.12 172
16.14 156
16.16 167
16.18 144
16.2 185
16.22 187
16.24 180
16.26 157
16.28 189
16.3 163
16.32 165
16.34 170
16.36 184
16.38 190
16.4 159
16.42 154
16.44 180
16.46 189
16.48 154
16.5 177
16.52 203
16.54 163
16.56 171
16.58 167
16.6 179
16.62 184
16.64 171
16.66 190
16.68 183
16.7 194
16.72 184
16.74 178
16.76 170
16.78 173
16.8 187
16.82 198
16.84 172
16.86 200
16.88 194
16.9 191
16.92 183
16.94 192
16.96 175
16.98 195
17 185
17.02 188
17.04 208
17.06 203
17.08 189
17.1 177
17.12 173
17.14 205
17.16 206
17.18 208
17.2 211
17.22 215
17.24 221
17.26 224
17.28 238
17.3 215
17.32 232
17.34 231
17.36 218
17.38 207
17.4 205
17.42 205
17.44 186
17.46 192
17.48 179
17.5 179
17.52 167
17.54 159
17.56 186
17.58 209
17.6 188
17.62 181
17.64 164
17.66 199
17.68 186
17.7 168
17.72 181
17.74 178
17.76 196
17.78 180
17.8 190
17.82 199
17.84 189
17.86 177
17.88 200
17.9 166
17.92 199
17.94 179
17.96 198
17.98 190
18 190
18.02 207
18.04 196
18.06 183
18.08 180
18.1 188
18.12 203
18.14 219
18.16 164
18.18 147
18.2 198
18.22 185
18.24 181
18.26 191
18.28 223
18.3 184
18.32 207
18.34 196
18.36 193
18.38 181
18.4 189
18.42 189
18.44 175
18.46 199
18.48 193
18.5 187
18.52 178
18.54 193
18.56 193
18.58 206
18.6 194
18.62 197
18.64 188
18.66 193
18.68 188
18.7 205
18.72 163
18.74 181
18.76 201
18.78 194
18.8 190
18.82 179
18.84 207
18.86 192
18.88 212
18.9 176
18.92 193
18.94 195
18.96 216
18.98 175
19 197
19.02 175
19.04 181
19.06 184
19.08 200
19.1 193
19.12 203
19.14 197
19.16 189
19.18 191
19.2 201
19.22 221
19.24 214
19.26 184
19.28 213
19.3 200
19.32 170
19.34 191
19.36 181
19.38 212
19.4 215
19.42 219
19.44 187
19.46 198
19.48 206
19.5 199
19.52 197
19.54 229
19.56 177
19.58 228
19.6 208
19.62 190
19.64 200
19.66 189
19.68 219
19.7 226
19.72 205
19.74 211
19.76 234
19.78 198
19.8 205
19.82 203
19.84 226
19.86 210
19.88 200
19.9 224
19.92 198
19.94 194
19.96 204
19.98 191
20 210