File: xrd-UiO-67/pxrddata/36-31.ASC
3 1897
3.02 1846
3.04 1771
3.06 1725
3.08 1769
3.1 1744
3.12 1725
3.14 1653
3.16 1589
3.18 1638
3.2 1603
3.22 1646
3.24 1695
3.26 1673
3.28 1605
3.3 1490
3.32 1551
3.34 1470
3.36 1506
3.38 1510
3.4 1471
3.42 1456
3.44 1461
3.46 1438
3.48 1448
3.5 1414
3.52 1462
3.54 1468
3.56 1385
3.58 1336
3.6 1417
3.62 1317
3.64 1381
3.66 1304
3.68 1386
3.7 1389
3.72 1305
3.74 1275
3.76 1288
3.78 1317
3.8 1299
3.82 1272
3.84 1240
3.86 1192
3.88 1268
3.9 1295
3.92 1244
3.94 1243
3.96 1178
3.98 1256
4 1211
4.02 1225
4.04 1178
4.06 1216
4.08 1202
4.1 1194
4.12 1106
4.14 1160
4.16 1163
4.18 1133
4.2 1136
4.22 1157
4.24 1065
4.26 1092
4.28 1129
4.3 1106
4.32 1122
4.34 1110
4.36 1108
4.38 1098
4.4 1134
4.42 1069
4.44 1021
4.46 1067
4.48 1079
4.5 1057
4.52 1096
4.54 1094
4.56 1086
4.58 1035
4.6 1095
4.62 1045
4.64 998
4.66 1012
4.68 1054
4.7 1050
4.72 1040
4.74 1075
4.76 1026
4.78 1028
4.8 1048
4.82 990
4.84 1031
4.86 977
4.88 1003
4.9 978
4.92 1014
4.94 1014
4.96 952
4.98 967
5 942
5.02 1045
5.04 973
5.06 1005
5.08 990
5.1 963
5.12 944
5.14 993
5.16 1002
5.18 982
5.2 1001
5.22 993
5.24 990
5.26 1062
5.28 1032
5.3 1074
5.32 1010
5.34 1091
5.36 1103
5.38 1160
5.4 1142
5.42 1199
5.44 1228
5.46 1115
5.48 1175
5.5 1106
5.52 1084
5.54 1086
5.56 1033
5.58 1012
5.6 929
5.62 961
5.64 962
5.66 911
5.68 958
5.7 897
5.72 968
5.74 951
5.76 1049
5.78 1031
5.8 947
5.82 984
5.84 949
5.86 941
5.88 839
5.9 801
5.92 771
5.94 793
5.96 773
5.98 784
6 695
6.02 727
6.04 744
6.06 749
6.08 712
6.1 658
6.12 698
6.14 715
6.16 674
6.18 703
6.2 693
6.22 660
6.24 635
6.26 649
6.28 634
6.3 612
6.32 636
6.34 646
6.36 643
6.38 615
6.4 593
6.42 589
6.44 620
6.46 635
6.48 622
6.5 638
6.52 621
6.54 611
6.56 623
6.58 599
6.6 581
6.62 599
6.64 565
6.66 554
6.68 586
6.7 571
6.72 563
6.74 525
6.76 544
6.78 605
6.8 559
6.82 597
6.84 594
6.86 556
6.88 545
6.9 522
6.92 537
6.94 573
6.96 558
6.98 537
7 552
7.02 602
7.04 538
7.06 563
7.08 569
7.1 570
7.12 587
7.14 523
7.16 535
7.18 499
7.2 529
7.22 548
7.24 541
7.26 499
7.28 490
7.3 516
7.32 486
7.34 474
7.36 516
7.38 517
7.4 478
7.42 495
7.44 503
7.46 528
7.48 520
7.5 507
7.52 512
7.54 502
7.56 484
7.58 547
7.6 534
7.62 465
7.64 499
7.66 499
7.68 493
7.7 481
7.72 512
7.74 511
7.76 489
7.78 525
7.8 480
7.82 500
7.84 495
7.86 456
7.88 515
7.9 506
7.92 491
7.94 490
7.96 484
7.98 467
8 507
8.02 524
8.04 488
8.06 483
8.08 461
8.1 468
8.12 513
8.14 452
8.16 459
8.18 450
8.2 462
8.22 494
8.24 467
8.26 508
8.28 512
8.3 506
8.32 430
8.34 480
8.36 479
8.38 472
8.4 490
8.42 480
8.44 441
8.46 483
8.48 465
8.5 468
8.52 462
8.54 471
8.56 460
8.58 466
8.6 488
8.62 505
8.64 459
8.66 445
8.68 488
8.7 502
8.72 453
8.74 480
8.76 446
8.78 457
8.8 469
8.82 482
8.84 434
8.86 442
8.88 466
8.9 459
8.92 498
8.94 476
8.96 448
8.98 429
9 455
9.02 475
9.04 489
9.06 500
9.08 487
9.1 441
9.12 428
9.14 465
9.16 466
9.18 488
9.2 530
9.22 483
9.24 447
9.26 516
9.28 516
9.3 539
9.32 514
9.34 540
9.36 517
9.38 499
9.4 565
9.42 542
9.44 490
9.46 516
9.48 470
9.5 467
9.52 522
9.54 459
9.56 467
9.58 506
9.6 438
9.62 476
9.64 461
9.66 418
9.68 486
9.7 475
9.72 487
9.74 484
9.76 494
9.78 496
9.8 492
9.82 462
9.84 474
9.86 487
9.88 428
9.9 461
9.92 440
9.94 456
9.96 474
9.98 457
10 437
10.02 450
10.04 448
10.06 430
10.08 437
10.1 426
10.12 403
10.14 466
10.16 450
10.18 413
10.2 415
10.22 458
10.24 417
10.26 425
10.28 417
10.3 431
10.32 427
10.34 402
10.36 433
10.38 447
10.4 402
10.42 386
10.44 415
10.46 436
10.48 428
10.5 443
10.52 423
10.54 404
10.56 416
10.58 428
10.6 413
10.62 435
10.64 451
10.66 401
10.68 435
10.7 433
10.72 492
10.74 448
10.76 522
10.78 475
10.8 479
10.82 491
10.84 457
10.86 466
10.88 422
10.9 488
10.92 444
10.94 443
10.96 427
10.98 429
11 471
11.02 456
11.04 398
11.06 430
11.08 424
11.1 420
11.12 467
11.14 416
11.16 417
11.18 422
11.2 440
11.22 412
11.24 400
11.26 449
11.28 415
11.3 447
11.32 389
11.34 415
11.36 406
11.38 401
11.4 417
11.42 412
11.44 422
11.46 373
11.48 445
11.5 420
11.52 456
11.54 464
11.56 417
11.58 435
11.6 425
11.62 428
11.64 406
11.66 419
11.68 399
11.7 415
11.72 406
11.74 413
11.76 403
11.78 415
11.8 415
11.82 456
11.84 406
11.86 444
11.88 422
11.9 431
11.92 410
11.94 394
11.96 417
11.98 394
12 420
12.02 409
12.04 391
12.06 432
12.08 438
12.1 435
12.12 430
12.14 422
12.16 434
12.18 412
12.2 440
12.22 408
12.24 428
12.26 412
12.28 425
12.3 406
12.32 418
12.34 417
12.36 394
12.38 436
12.4 418
12.42 415
12.44 420
12.46 381
12.48 366
12.5 415
12.52 402
12.54 406
12.56 400
12.58 431
12.6 408
12.62 389
12.64 385
12.66 457
12.68 433
12.7 369
12.72 432
12.74 430
12.76 399
12.78 427
12.8 379
12.82 405
12.84 410
12.86 396
12.88 417
12.9 430
12.92 411
12.94 416
12.96 412
12.98 397
13 422
13.02 414
13.04 409
13.06 439
13.08 438
13.1 418
13.12 405
13.14 438
13.16 421
13.18 414
13.2 396
13.22 465
13.24 388
13.26 474
13.28 427
13.3 423
13.32 430
13.34 401
13.36 379
13.38 408
13.4 430
13.42 428
13.44 427
13.46 443
13.48 475
13.5 459
13.52 418
13.54 399
13.56 438
13.58 438
13.6 417
13.62 435
13.64 444
13.66 432
13.68 445
13.7 423
13.72 459
13.74 450
13.76 446
13.78 413
13.8 387
13.82 452
13.84 473
13.86 451
13.88 440
13.9 449
13.92 409
13.94 439
13.96 436
13.98 398
14 403
14.02 406
14.04 447
14.06 425
14.08 442
14.1 418
14.12 455
14.14 449
14.16 412
14.18 463
14.2 458
14.22 442
14.24 449
14.26 462
14.28 430
14.3 448
14.32 447
14.34 453
14.36 448
14.38 425
14.4 503
14.42 460
14.44 457
14.46 438
14.48 437
14.5 432
14.52 447
14.54 468
14.56 453
14.58 458
14.6 414
14.62 480
14.64 450
14.66 414
14.68 457
14.7 455
14.72 443
14.74 454
14.76 438
14.78 483
14.8 472
14.82 460
14.84 421
14.86 460
14.88 478
14.9 439
14.92 465
14.94 464
14.96 457
14.98 456
15 441
15.02 444
15.04 443
15.06 489
15.08 444
15.1 474
15.12 472
15.14 500
15.16 439
15.18 485
15.2 454
15.22 447
15.24 448
15.26 484
15.28 506
15.3 470
15.32 484
15.34 462
15.36 489
15.38 453
15.4 456
15.42 447
15.44 511
15.46 470
15.48 439
15.5 432
15.52 454
15.54 502
15.56 495
15.58 480
15.6 484
15.62 472
15.64 497
15.66 488
15.68 463
15.7 495
15.72 492
15.74 469
15.76 493
15.78 469
15.8 484
15.82 444
15.84 500
15.86 469
15.88 484
15.9 514
15.92 498
15.94 474
15.96 494
15.98 514
16 491
16.02 527
16.04 468
16.06 499
16.08 524
16.1 465
16.12 471
16.14 482
16.16 522
16.18 527
16.2 487
16.22 476
16.24 516
16.26 532
16.28 542
16.3 520
16.32 528
16.34 524
16.36 495
16.38 529
16.4 517
16.42 532
16.44 522
16.46 526
16.48 542
16.5 530
16.52 529
16.54 484
16.56 499
16.58 510
16.6 517
16.62 520
16.64 518
16.66 548
16.68 602
16.7 559
16.72 552
16.74 558
16.76 567
16.78 558
16.8 574
16.82 563
16.84 618
16.86 589
16.88 598
16.9 646
16.92 661
16.94 742
16.96 805
16.98 939
17 1108
17.02 1195
17.04 1071
17.06 1056
17.08 919
17.1 881
17.12 863
17.14 816
17.16 726
17.18 656
17.2 625
17.22 639
17.24 570
17.26 594
17.28 591
17.3 615
17.32 619
17.34 583
17.36 646
17.38 547
17.4 588
17.42 585
17.44 627
17.46 538
17.48 577
17.5 553
17.52 596
17.54 638
17.56 570
17.58 596
17.6 630
17.62 613
17.64 555
17.66 574
17.68 614
17.7 551
17.72 612
17.74 611
17.76 664
17.78 585
17.8 574
17.82 574
17.84 554
17.86 577
17.88 618
17.9 600
17.92 580
17.94 626
17.96 598
17.98 652
18 655
18.02 581
18.04 623
18.06 587
18.08 641
18.1 637
18.12 618
18.14 612
18.16 622
18.18 634
18.2 622
18.22 641
18.24 612
18.26 614
18.28 606
18.3 598
18.32 625
18.34 659
18.36 680
18.38 613
18.4 629
18.42 636
18.44 666
18.46 637
18.48 680
18.5 631
18.52 685
18.54 655
18.56 603
18.58 674
18.6 670
18.62 698
18.64 695
18.66 645
18.68 614
18.7 702
18.72 668
18.74 679
18.76 648
18.78 667
18.8 641
18.82 667
18.84 707
18.86 685
18.88 676
18.9 669
18.92 690
18.94 662
18.96 690
18.98 648
19 700
19.02 720
19.04 679
19.06 681
19.08 642
19.1 687
19.12 706
19.14 718
19.16 717
19.18 721
19.2 697
19.22 704
19.24 702
19.26 708
19.28 701
19.3 659
19.32 718
19.34 697
19.36 727
19.38 775
19.4 690
19.42 742
19.44 720
19.46 738
19.48 748
19.5 719
19.52 726
19.54 680
19.56 794
19.58 735
19.6 737
19.62 696
19.64 733
19.66 722
19.68 759
19.7 793
19.72 774
19.74 733
19.76 738
19.78 751
19.8 806
19.82 754
19.84 738
19.86 763
19.88 774
19.9 728
19.92 704
19.94 723
19.96 758
19.98 735
20 728