File: xrd-UiO-67/pxrddata/36-30.ASC
3 944
3.02 873
3.04 879
3.06 858
3.08 820
3.1 806
3.12 758
3.14 830
3.16 826
3.18 813
3.2 753
3.22 794
3.24 767
3.26 774
3.28 796
3.3 756
3.32 742
3.34 752
3.36 744
3.38 741
3.4 742
3.42 727
3.44 710
3.46 758
3.48 695
3.5 703
3.52 719
3.54 686
3.56 732
3.58 731
3.6 702
3.62 729
3.64 768
3.66 670
3.68 705
3.7 688
3.72 725
3.74 685
3.76 725
3.78 698
3.8 685
3.82 720
3.84 693
3.86 709
3.88 654
3.9 667
3.92 720
3.94 683
3.96 714
3.98 699
4 659
4.02 701
4.04 730
4.06 689
4.08 675
4.1 724
4.12 669
4.14 691
4.16 638
4.18 636
4.2 679
4.22 652
4.24 641
4.26 702
4.28 658
4.3 674
4.32 650
4.34 657
4.36 663
4.38 664
4.4 695
4.42 709
4.44 717
4.46 678
4.48 723
4.5 719
4.52 631
4.54 678
4.56 661
4.58 656
4.6 646
4.62 655
4.64 644
4.66 661
4.68 691
4.7 687
4.72 657
4.74 677
4.76 633
4.78 682
4.8 697
4.82 682
4.84 673
4.86 654
4.88 711
4.9 689
4.92 688
4.94 685
4.96 700
4.98 685
5 656
5.02 718
5.04 644
5.06 661
5.08 676
5.1 698
5.12 711
5.14 699
5.16 720
5.18 741
5.2 726
5.22 695
5.24 703
5.26 754
5.28 726
5.3 709
5.32 771
5.34 776
5.36 799
5.38 747
5.4 760
5.42 809
5.44 829
5.46 803
5.48 872
5.5 898
5.52 876
5.54 820
5.56 907
5.58 898
5.6 981
5.62 992
5.64 956
5.66 967
5.68 1045
5.7 1037
5.72 1100
5.74 1016
5.76 1030
5.78 1007
5.8 931
5.82 854
5.84 818
5.86 731
5.88 720
5.9 673
5.92 673
5.94 683
5.96 593
5.98 626
6 641
6.02 560
6.04 643
6.06 588
6.08 579
6.1 548
6.12 551
6.14 583
6.16 557
6.18 541
6.2 550
6.22 531
6.24 522
6.26 523
6.28 533
6.3 555
6.32 567
6.34 513
6.36 514
6.38 490
6.4 506
6.42 481
6.44 490
6.46 503
6.48 488
6.5 511
6.52 484
6.54 476
6.56 539
6.58 481
6.6 475
6.62 476
6.64 488
6.66 466
6.68 469
6.7 487
6.72 461
6.74 442
6.76 456
6.78 464
6.8 468
6.82 519
6.84 453
6.86 421
6.88 458
6.9 444
6.92 402
6.94 435
6.96 472
6.98 411
7 437
7.02 450
7.04 422
7.06 420
7.08 401
7.1 438
7.12 454
7.14 465
7.16 454
7.18 397
7.2 452
7.22 439
7.24 433
7.26 398
7.28 400
7.3 448
7.32 452
7.34 391
7.36 455
7.38 452
7.4 425
7.42 437
7.44 410
7.46 409
7.48 415
7.5 401
7.52 428
7.54 414
7.56 439
7.58 429
7.6 394
7.62 421
7.64 430
7.66 417
7.68 424
7.7 401
7.72 439
7.74 373
7.76 421
7.78 417
7.8 406
7.82 422
7.84 387
7.86 371
7.88 408
7.9 420
7.92 394
7.94 388
7.96 399
7.98 392
8 364
8.02 369
8.04 388
8.06 399
8.08 386
8.1 383
8.12 375
8.14 380
8.16 362
8.18 404
8.2 396
8.22 370
8.24 361
8.26 372
8.28 370
8.3 397
8.32 371
8.34 394
8.36 377
8.38 376
8.4 386
8.42 374
8.44 390
8.46 350
8.48 386
8.5 353
8.52 344
8.54 380
8.56 371
8.58 397
8.6 387
8.62 391
8.64 397
8.66 374
8.68 352
8.7 333
8.72 376
8.74 353
8.76 351
8.78 336
8.8 349
8.82 375
8.84 355
8.86 351
8.88 348
8.9 378
8.92 340
8.94 355
8.96 370
8.98 355
9 368
9.02 340
9.04 342
9.06 375
9.08 362
9.1 356
9.12 377
9.14 383
9.16 371
9.18 389
9.2 354
9.22 328
9.24 344
9.26 366
9.28 372
9.3 362
9.32 369
9.34 373
9.36 369
9.38 391
9.4 403
9.42 377
9.44 416
9.46 401
9.48 411
9.5 405
9.52 421
9.54 453
9.56 428
9.58 452
9.6 455
9.62 476
9.64 427
9.66 461
9.68 457
9.7 425
9.72 467
9.74 420
9.76 414
9.78 412
9.8 394
9.82 404
9.84 373
9.86 371
9.88 377
9.9 373
9.92 347
9.94 348
9.96 360
9.98 354
10 327
10.02 344
10.04 326
10.06 343
10.08 366
10.1 320
10.12 327
10.14 330
10.16 325
10.18 322
10.2 349
10.22 353
10.24 307
10.26 304
10.28 332
10.3 352
10.32 334
10.34 325
10.36 319
10.38 348
10.4 307
10.42 308
10.44 362
10.46 339
10.48 317
10.5 320
10.52 327
10.54 333
10.56 351
10.58 300
10.6 326
10.62 333
10.64 334
10.66 322
10.68 333
10.7 354
10.72 301
10.74 345
10.76 373
10.78 303
10.8 349
10.82 327
10.84 325
10.86 340
10.88 340
10.9 328
10.92 326
10.94 339
10.96 357
10.98 333
11 356
11.02 364
11.04 342
11.06 356
11.08 337
11.1 333
11.12 324
11.14 333
11.16 314
11.18 356
11.2 345
11.22 336
11.24 346
11.26 347
11.28 340
11.3 299
11.32 320
11.34 334
11.36 308
11.38 328
11.4 345
11.42 340
11.44 313
11.46 337
11.48 310
11.5 304
11.52 290
11.54 304
11.56 313
11.58 315
11.6 309
11.62 338
11.64 313
11.66 293
11.68 316
11.7 282
11.72 316
11.74 274
11.76 318
11.78 299
11.8 328
11.82 288
11.84 291
11.86 313
11.88 310
11.9 331
11.92 305
11.94 317
11.96 322
11.98 316
12 287
12.02 287
12.04 309
12.06 291
12.08 304
12.1 321
12.12 278
12.14 339
12.16 316
12.18 326
12.2 306
12.22 287
12.24 317
12.26 314
12.28 295
12.3 323
12.32 304
12.34 318
12.36 311
12.38 304
12.4 329
12.42 319
12.44 344
12.46 295
12.48 337
12.5 301
12.52 306
12.54 291
12.56 318
12.58 308
12.6 292
12.62 335
12.64 334
12.66 280
12.68 285
12.7 317
12.72 303
12.74 324
12.76 314
12.78 310
12.8 347
12.82 334
12.84 299
12.86 318
12.88 324
12.9 346
12.92 272
12.94 315
12.96 338
12.98 287
13 314
13.02 321
13.04 321
13.06 296
13.08 335
13.1 308
13.12 349
13.14 298
13.16 313
13.18 301
13.2 303
13.22 328
13.24 322
13.26 305
13.28 290
13.3 321
13.32 301
13.34 322
13.36 321
13.38 322
13.4 317
13.42 345
13.44 321
13.46 319
13.48 319
13.5 331
13.52 288
13.54 320
13.56 287
13.58 340
13.6 329
13.62 328
13.64 304
13.66 300
13.68 306
13.7 295
13.72 327
13.74 287
13.76 321
13.78 329
13.8 341
13.82 294
13.84 340
13.86 321
13.88 351
13.9 321
13.92 283
13.94 336
13.96 334
13.98 298
14 317
14.02 343
14.04 334
14.06 345
14.08 335
14.1 346
14.12 336
14.14 323
14.16 303
14.18 319
14.2 298
14.22 331
14.24 310
14.26 321
14.28 318
14.3 325
14.32 352
14.34 314
14.36 324
14.38 332
14.4 320
14.42 314
14.44 316
14.46 334
14.48 323
14.5 314
14.52 338
14.54 320
14.56 324
14.58 300
14.6 338
14.62 319
14.64 352
14.66 342
14.68 340
14.7 319
14.72 357
14.74 303
14.76 309
14.78 342
14.8 350
14.82 299
14.84 361
14.86 322
14.88 311
14.9 309
14.92 338
14.94 356
14.96 323
14.98 349
15 323
15.02 320
15.04 295
15.06 333
15.08 362
15.1 328
15.12 321
15.14 322
15.16 352
15.18 338
15.2 348
15.22 339
15.24 342
15.26 384
15.28 364
15.3 330
15.32 368
15.34 346
15.36 352
15.38 348
15.4 329
15.42 360
15.44 357
15.46 380
15.48 348
15.5 336
15.52 326
15.54 341
15.56 341
15.58 337
15.6 361
15.62 358
15.64 376
15.66 358
15.68 342
15.7 330
15.72 344
15.74 332
15.76 353
15.78 320
15.8 338
15.82 357
15.84 324
15.86 331
15.88 333
15.9 343
15.92 387
15.94 363
15.96 334
15.98 327
16 336
16.02 348
16.04 342
16.06 354
16.08 335
16.1 358
16.12 403
16.14 362
16.16 344
16.18 333
16.2 360
16.22 352
16.24 397
16.26 367
16.28 380
16.3 378
16.32 374
16.34 363
16.36 369
16.38 367
16.4 364
16.42 373
16.44 383
16.46 368
16.48 385
16.5 388
16.52 372
16.54 359
16.56 359
16.58 348
16.6 385
16.62 368
16.64 384
16.66 354
16.68 380
16.7 381
16.72 379
16.74 382
16.76 392
16.78 392
16.8 389
16.82 406
16.84 417
16.86 421
16.88 405
16.9 410
16.92 409
16.94 449
16.96 460
16.98 469
17 437
17.02 415
17.04 452
17.06 491
17.08 487
17.1 479
17.12 483
17.14 495
17.16 504
17.18 525
17.2 549
17.22 524
17.24 562
17.26 600
17.28 586
17.3 599
17.32 603
17.34 595
17.36 555
17.38 516
17.4 471
17.42 490
17.44 484
17.46 444
17.48 452
17.5 400
17.52 426
17.54 416
17.56 389
17.58 403
17.6 429
17.62 411
17.64 385
17.66 440
17.68 421
17.7 472
17.72 441
17.74 421
17.76 446
17.78 418
17.8 435
17.82 425
17.84 432
17.86 420
17.88 427
17.9 444
17.92 427
17.94 457
17.96 421
17.98 391
18 430
18.02 447
18.04 440
18.06 453
18.08 457
18.1 403
18.12 404
18.14 475
18.16 427
18.18 427
18.2 419
18.22 452
18.24 438
18.26 452
18.28 448
18.3 445
18.32 429
18.34 444
18.36 482
18.38 448
18.4 433
18.42 440
18.44 446
18.46 448
18.48 467
18.5 433
18.52 511
18.54 439
18.56 457
18.58 466
18.6 452
18.62 447
18.64 480
18.66 439
18.68 455
18.7 444
18.72 478
18.74 462
18.76 478
18.78 460
18.8 460
18.82 474
18.84 457
18.86 496
18.88 470
18.9 494
18.92 493
18.94 492
18.96 464
18.98 458
19 496
19.02 449
19.04 482
19.06 515
19.08 464
19.1 488
19.12 473
19.14 474
19.16 474
19.18 498
19.2 513
19.22 493
19.24 512
19.26 492
19.28 500
19.3 469
19.32 467
19.34 509
19.36 554
19.38 479
19.4 504
19.42 555
19.44 492
19.46 489
19.48 540
19.5 513
19.52 504
19.54 487
19.56 516
19.58 536
19.6 568
19.62 557
19.64 541
19.66 542
19.68 540
19.7 517
19.72 550
19.74 521
19.76 524
19.78 543
19.8 511
19.82 539
19.84 509
19.86 565
19.88 551
19.9 556
19.92 518
19.94 611
19.96 530
19.98 556
20 539