File: xrd-UiO-67/pxrddata/36-32.ASC
3 2318
3.02 2175
3.04 2164
3.06 2144
3.08 2230
3.1 2073
3.12 2126
3.14 2092
3.16 2008
3.18 1974
3.2 2012
3.22 1849
3.24 1926
3.26 1960
3.28 1900
3.3 1846
3.32 1844
3.34 1799
3.36 1767
3.38 1801
3.4 1759
3.42 1789
3.44 1805
3.46 1706
3.48 1736
3.5 1795
3.52 1766
3.54 1701
3.56 1733
3.58 1600
3.6 1643
3.62 1664
3.64 1562
3.66 1596
3.68 1582
3.7 1569
3.72 1575
3.74 1628
3.76 1624
3.78 1589
3.8 1564
3.82 1541
3.84 1514
3.86 1553
3.88 1545
3.9 1591
3.92 1500
3.94 1482
3.96 1499
3.98 1508
4 1490
4.02 1448
4.04 1396
4.06 1462
4.08 1436
4.1 1481
4.12 1434
4.14 1420
4.16 1452
4.18 1404
4.2 1452
4.22 1367
4.24 1422
4.26 1453
4.28 1375
4.3 1400
4.32 1414
4.34 1388
4.36 1362
4.38 1347
4.4 1319
4.42 1362
4.44 1378
4.46 1313
4.48 1317
4.5 1354
4.52 1346
4.54 1260
4.56 1379
4.58 1352
4.6 1345
4.62 1179
4.64 1305
4.66 1331
4.68 1344
4.7 1252
4.72 1305
4.74 1323
4.76 1292
4.78 1260
4.8 1349
4.82 1287
4.84 1280
4.86 1297
4.88 1266
4.9 1237
4.92 1213
4.94 1185
4.96 1293
4.98 1228
5 1229
5.02 1247
5.04 1282
5.06 1277
5.08 1186
5.1 1209
5.12 1280
5.14 1256
5.16 1252
5.18 1234
5.2 1255
5.22 1267
5.24 1277
5.26 1318
5.28 1338
5.3 1326
5.32 1364
5.34 1324
5.36 1399
5.38 1527
5.4 1481
5.42 1496
5.44 1438
5.46 1293
5.48 1308
5.5 1281
5.52 1204
5.54 1186
5.56 1218
5.58 1159
5.6 1130
5.62 1170
5.64 1170
5.66 1115
5.68 1124
5.7 1125
5.72 1176
5.74 1069
5.76 1139
5.78 1159
5.8 1178
5.82 1151
5.84 1151
5.86 1088
5.88 981
5.9 1031
5.92 995
5.94 945
5.96 928
5.98 904
6 880
6.02 962
6.04 915
6.06 844
6.08 845
6.1 899
6.12 811
6.14 849
6.16 840
6.18 841
6.2 827
6.22 789
6.24 837
6.26 812
6.28 795
6.3 810
6.32 807
6.34 832
6.36 779
6.38 758
6.4 784
6.42 794
6.44 732
6.46 779
6.48 732
6.5 743
6.52 718
6.54 749
6.56 759
6.58 729
6.6 755
6.62 669
6.64 729
6.66 679
6.68 654
6.7 720
6.72 691
6.74 672
6.76 726
6.78 711
6.8 695
6.82 711
6.84 674
6.86 691
6.88 718
6.9 705
6.92 651
6.94 723
6.96 639
6.98 639
7 695
7.02 679
7.04 698
7.06 655
7.08 672
7.1 694
7.12 680
7.14 632
7.16 661
7.18 618
7.2 599
7.22 650
7.24 629
7.26 661
7.28 618
7.3 621
7.32 614
7.34 651
7.36 652
7.38 600
7.4 642
7.42 642
7.44 627
7.46 635
7.48 589
7.5 637
7.52 598
7.54 585
7.56 604
7.58 593
7.6 596
7.62 568
7.64 590
7.66 591
7.68 622
7.7 627
7.72 588
7.74 609
7.76 576
7.78 574
7.8 552
7.82 605
7.84 577
7.86 534
7.88 594
7.9 547
7.92 613
7.94 609
7.96 600
7.98 596
8 529
8.02 566
8.04 567
8.06 594
8.08 602
8.1 580
8.12 558
8.14 559
8.16 558
8.18 523
8.2 555
8.22 569
8.24 563
8.26 543
8.28 535
8.3 595
8.32 531
8.34 547
8.36 556
8.38 534
8.4 575
8.42 528
8.44 550
8.46 527
8.48 548
8.5 588
8.52 542
8.54 514
8.56 551
8.58 557
8.6 525
8.62 538
8.64 567
8.66 541
8.68 512
8.7 519
8.72 528
8.74 550
8.76 507
8.78 513
8.8 485
8.82 537
8.84 548
8.86 564
8.88 551
8.9 547
8.92 546
8.94 586
8.96 506
8.98 568
9 522
9.02 565
9.04 547
9.06 552
9.08 554
9.1 549
9.12 542
9.14 553
9.16 525
9.18 557
9.2 518
9.22 604
9.24 626
9.26 611
9.28 614
9.3 635
9.32 646
9.34 558
9.36 625
9.38 625
9.4 584
9.42 595
9.44 565
9.46 569
9.48 555
9.5 558
9.52 549
9.54 536
9.56 558
9.58 547
9.6 515
9.62 574
9.64 533
9.66 567
9.68 497
9.7 501
9.72 501
9.74 553
9.76 494
9.78 547
9.8 521
9.82 498
9.84 536
9.86 517
9.88 505
9.9 507
9.92 510
9.94 500
9.96 550
9.98 512
10 485
10.02 519
10.04 477
10.06 502
10.08 476
10.1 508
10.12 498
10.14 504
10.16 480
10.18 508
10.2 480
10.22 493
10.24 466
10.26 510
10.28 507
10.3 469
10.32 503
10.34 474
10.36 478
10.38 494
10.4 518
10.42 479
10.44 511
10.46 463
10.48 512
10.5 494
10.52 503
10.54 504
10.56 501
10.58 484
10.6 498
10.62 530
10.64 527
10.66 517
10.68 558
10.7 518
10.72 519
10.74 503
10.76 551
10.78 517
10.8 538
10.82 508
10.84 508
10.86 509
10.88 523
10.9 504
10.92 479
10.94 479
10.96 473
10.98 459
11 493
11.02 498
11.04 469
11.06 484
11.08 465
11.1 470
11.12 513
11.14 479
11.16 509
11.18 497
11.2 502
11.22 461
11.24 462
11.26 516
11.28 513
11.3 496
11.32 482
11.34 501
11.36 491
11.38 501
11.4 481
11.42 498
11.44 467
11.46 482
11.48 473
11.5 445
11.52 469
11.54 453
11.56 493
11.58 499
11.6 492
11.62 532
11.64 438
11.66 485
11.68 514
11.7 425
11.72 494
11.74 474
11.76 469
11.78 476
11.8 491
11.82 477
11.84 471
11.86 499
11.88 493
11.9 494
11.92 483
11.94 438
11.96 466
11.98 469
12 481
12.02 454
12.04 483
12.06 500
12.08 481
12.1 467
12.12 436
12.14 502
12.16 488
12.18 468
12.2 457
12.22 483
12.24 471
12.26 489
12.28 483
12.3 482
12.32 496
12.34 512
12.36 482
12.38 507
12.4 504
12.42 494
12.44 455
12.46 478
12.48 484
12.5 462
12.52 475
12.54 489
12.56 489
12.58 471
12.6 484
12.62 491
12.64 479
12.66 521
12.68 463
12.7 479
12.72 538
12.74 472
12.76 483
12.78 496
12.8 507
12.82 483
12.84 473
12.86 505
12.88 497
12.9 473
12.92 514
12.94 440
12.96 542
12.98 479
13 502
13.02 477
13.04 536
13.06 457
13.08 492
13.1 493
13.12 509
13.14 510
13.16 517
13.18 470
13.2 527
13.22 527
13.24 524
13.26 511
13.28 461
13.3 492
13.32 484
13.34 525
13.36 465
13.38 472
13.4 500
13.42 517
13.44 511
13.46 491
13.48 552
13.5 530
13.52 501
13.54 484
13.56 478
13.58 544
13.6 513
13.62 494
13.64 508
13.66 528
13.68 501
13.7 534
13.72 521
13.74 512
13.76 525
13.78 509
13.8 508
13.82 507
13.84 497
13.86 467
13.88 510
13.9 549
13.92 541
13.94 527
13.96 504
13.98 507
14 516
14.02 529
14.04 494
14.06 537
14.08 534
14.1 510
14.12 487
14.14 530
14.16 555
14.18 515
14.2 511
14.22 530
14.24 515
14.26 518
14.28 520
14.3 499
14.32 542
14.34 536
14.36 502
14.38 556
14.4 524
14.42 504
14.44 524
14.46 575
14.48 524
14.5 522
14.52 523
14.54 546
14.56 546
14.58 550
14.6 524
14.62 529
14.64 533
14.66 558
14.68 575
14.7 546
14.72 567
14.74 541
14.76 560
14.78 537
14.8 552
14.82 580
14.84 545
14.86 550
14.88 551
14.9 540
14.92 561
14.94 532
14.96 533
14.98 541
15 520
15.02 532
15.04 538
15.06 525
15.08 536
15.1 552
15.12 549
15.14 545
15.16 533
15.18 597
15.2 590
15.22 579
15.24 535
15.26 543
15.28 608
15.3 580
15.32 548
15.34 568
15.36 552
15.38 553
15.4 560
15.42 562
15.44 599
15.46 598
15.48 587
15.5 553
15.52 576
15.54 542
15.56 611
15.58 584
15.6 579
15.62 627
15.64 592
15.66 595
15.68 588
15.7 580
15.72 605
15.74 623
15.76 574
15.78 556
15.8 588
15.82 574
15.84 587
15.86 598
15.88 586
15.9 600
15.92 606
15.94 606
15.96 621
15.98 585
16 587
16.02 565
16.04 602
16.06 605
16.08 624
16.1 626
16.12 593
16.14 595
16.16 640
16.18 625
16.2 602
16.22 637
16.24 606
16.26 636
16.28 611
16.3 627
16.32 602
16.34 633
16.36 617
16.38 637
16.4 610
16.42 629
16.44 630
16.46 678
16.48 590
16.5 637
16.52 607
16.54 626
16.56 651
16.58 642
16.6 678
16.62 673
16.64 662
16.66 629
16.68 655
16.7 693
16.72 682
16.74 712
16.76 701
16.78 682
16.8 728
16.82 753
16.84 767
16.86 800
16.88 837
16.9 879
16.92 971
16.94 1065
16.96 1184
16.98 1249
17 1362
17.02 1311
17.04 1196
17.06 1061
17.08 947
17.1 884
17.12 810
17.14 752
17.16 759
17.18 782
17.2 709
17.22 734
17.24 674
17.26 710
17.28 695
17.3 690
17.32 681
17.34 746
17.36 740
17.38 772
17.4 708
17.42 703
17.44 747
17.46 732
17.48 736
17.5 725
17.52 778
17.54 712
17.56 711
17.58 746
17.6 759
17.62 729
17.64 701
17.66 751
17.68 777
17.7 732
17.72 726
17.74 735
17.76 731
17.78 714
17.8 788
17.82 774
17.84 759
17.86 734
17.88 767
17.9 752
17.92 740
17.94 783
17.96 812
17.98 785
18 747
18.02 740
18.04 712
18.06 751
18.08 790
18.1 777
18.12 743
18.14 790
18.16 808
18.18 827
18.2 830
18.22 800
18.24 792
18.26 775
18.28 836
18.3 740
18.32 760
18.34 781
18.36 836
18.38 783
18.4 802
18.42 774
18.44 797
18.46 837
18.48 748
18.5 823
18.52 791
18.54 785
18.56 834
18.58 783
18.6 814
18.62 827
18.64 796
18.66 820
18.68 816
18.7 800
18.72 776
18.74 815
18.76 837
18.78 834
18.8 860
18.82 830
18.84 885
18.86 826
18.88 845
18.9 869
18.92 873
18.94 820
18.96 856
18.98 862
19 848
19.02 793
19.04 793
19.06 821
19.08 851
19.1 870
19.12 869
19.14 875
19.16 893
19.18 878
19.2 889
19.22 881
19.24 939
19.26 880
19.28 863
19.3 934
19.32 884
19.34 910
19.36 940
19.38 898
19.4 948
19.42 957
19.44 977
19.46 923
19.48 936
19.5 995
19.52 925
19.54 946
19.56 922
19.58 877
19.6 927
19.62 912
19.64 856
19.66 889
19.68 886
19.7 909
19.72 914
19.74 939
19.76 961
19.78 907
19.8 912
19.82 913
19.84 954
19.86 989
19.88 985
19.9 952
19.92 936
19.94 930
19.96 913
19.98 884
20 950