File: xrd-UiO-67/pxrddata/36-35.ASC
3 1668
3.02 1630
3.04 1589
3.06 1603
3.08 1564
3.1 1538
3.12 1478
3.14 1491
3.16 1485
3.18 1493
3.2 1425
3.22 1419
3.24 1470
3.26 1407
3.28 1419
3.3 1384
3.32 1344
3.34 1385
3.36 1373
3.38 1303
3.4 1386
3.42 1320
3.44 1326
3.46 1317
3.48 1239
3.5 1325
3.52 1230
3.54 1203
3.56 1293
3.58 1272
3.6 1234
3.62 1199
3.64 1139
3.66 1210
3.68 1138
3.7 1184
3.72 1110
3.74 1107
3.76 1154
3.78 1144
3.8 1175
3.82 1102
3.84 1103
3.86 1086
3.88 1086
3.9 1065
3.92 1080
3.94 1039
3.96 1071
3.98 1043
4 1004
4.02 1057
4.04 1020
4.06 1019
4.08 1012
4.1 1008
4.12 1011
4.14 950
4.16 993
4.18 992
4.2 1014
4.22 987
4.24 996
4.26 949
4.28 947
4.3 927
4.32 915
4.34 888
4.36 932
4.38 950
4.4 914
4.42 990
4.44 927
4.46 949
4.48 843
4.5 875
4.52 879
4.54 865
4.56 885
4.58 952
4.6 828
4.62 864
4.64 875
4.66 872
4.68 861
4.7 809
4.72 855
4.74 847
4.76 884
4.78 868
4.8 900
4.82 851
4.84 750
4.86 880
4.88 889
4.9 872
4.92 873
4.94 903
4.96 832
4.98 817
5 854
5.02 835
5.04 868
5.06 880
5.08 908
5.1 900
5.12 919
5.14 928
5.16 905
5.18 928
5.2 883
5.22 859
5.24 984
5.26 956
5.28 1051
5.3 1015
5.32 1067
5.34 1090
5.36 1176
5.38 1240
5.4 1249
5.42 1331
5.44 1462
5.46 1511
5.48 1644
5.5 1639
5.52 1533
5.54 1296
5.56 1151
5.58 1043
5.6 909
5.62 888
5.64 889
5.66 792
5.68 838
5.7 822
5.72 833
5.74 757
5.76 768
5.78 700
5.8 786
5.82 786
5.84 726
5.86 716
5.88 737
5.9 728
5.92 683
5.94 696
5.96 730
5.98 710
6 677
6.02 693
6.04 673
6.06 658
6.08 639
6.1 653
6.12 604
6.14 628
6.16 637
6.18 663
6.2 654
6.22 560
6.24 648
6.26 603
6.28 594
6.3 614
6.32 625
6.34 613
6.36 623
6.38 599
6.4 613
6.42 602
6.44 593
6.46 590
6.48 603
6.5 590
6.52 575
6.54 600
6.56 617
6.58 607
6.6 601
6.62 569
6.64 611
6.66 545
6.68 594
6.7 595
6.72 579
6.74 577
6.76 616
6.78 602
6.8 558
6.82 589
6.84 622
6.86 575
6.88 558
6.9 584
6.92 546
6.94 566
6.96 569
6.98 550
7 553
7.02 569
7.04 560
7.06 570
7.08 583
7.1 580
7.12 578
7.14 520
7.16 536
7.18 558
7.2 569
7.22 551
7.24 597
7.26 547
7.28 503
7.3 584
7.32 574
7.34 511
7.36 548
7.38 579
7.4 538
7.42 539
7.44 500
7.46 525
7.48 513
7.5 543
7.52 535
7.54 548
7.56 539
7.58 530
7.6 545
7.62 522
7.64 530
7.66 533
7.68 541
7.7 540
7.72 545
7.74 587
7.76 527
7.78 546
7.8 554
7.82 504
7.84 507
7.86 508
7.88 499
7.9 529
7.92 538
7.94 509
7.96 574
7.98 536
8 553
8.02 535
8.04 486
8.06 531
8.08 513
8.1 528
8.12 517
8.14 531
8.16 533
8.18 507
8.2 546
8.22 474
8.24 537
8.26 495
8.28 526
8.3 534
8.32 495
8.34 512
8.36 525
8.38 513
8.4 510
8.42 504
8.44 484
8.46 498
8.48 507
8.5 492
8.52 544
8.54 512
8.56 499
8.58 515
8.6 511
8.62 508
8.64 519
8.66 487
8.68 471
8.7 542
8.72 505
8.74 484
8.76 488
8.78 496
8.8 533
8.82 495
8.84 511
8.86 480
8.88 520
8.9 459
8.92 487
8.94 506
8.96 537
8.98 506
9 512
9.02 496
9.04 493
9.06 470
9.08 520
9.1 529
9.12 530
9.14 562
9.16 527
9.18 538
9.2 566
9.22 543
9.24 587
9.26 542
9.28 561
9.3 645
9.32 637
9.34 667
9.36 713
9.38 739
9.4 800
9.42 789
9.44 745
9.46 677
9.48 614
9.5 563
9.52 609
9.54 522
9.56 547
9.58 555
9.6 515
9.62 502
9.64 473
9.66 479
9.68 469
9.7 462
9.72 502
9.74 485
9.76 465
9.78 491
9.8 491
9.82 495
9.84 467
9.86 488
9.88 525
9.9 509
9.92 484
9.94 506
9.96 524
9.98 531
10 450
10.02 529
10.04 502
10.06 499
10.08 505
10.1 497
10.12 495
10.14 474
10.16 482
10.18 505
10.2 506
10.22 493
10.24 492
10.26 468
10.28 501
10.3 518
10.32 483
10.34 500
10.36 476
10.38 501
10.4 464
10.42 514
10.44 511
10.46 490
10.48 460
10.5 487
10.52 508
10.54 476
10.56 536
10.58 521
10.6 513
10.62 479
10.64 494
10.66 479
10.68 523
10.7 540
10.72 548
10.74 576
10.76 553
10.78 572
10.8 634
10.82 630
10.84 676
10.86 641
10.88 610
10.9 585
10.92 587
10.94 531
10.96 585
10.98 574
11 537
11.02 513
11.04 499
11.06 506
11.08 524
11.1 469
11.12 501
11.14 527
11.16 505
11.18 488
11.2 503
11.22 473
11.24 468
11.26 492
11.28 495
11.3 492
11.32 479
11.34 475
11.36 521
11.38 498
11.4 518
11.42 508
11.44 487
11.46 503
11.48 479
11.5 478
11.52 501
11.54 512
11.56 503
11.58 489
11.6 484
11.62 485
11.64 494
11.66 471
11.68 495
11.7 500
11.72 473
11.74 473
11.76 509
11.78 506
11.8 556
11.82 521
11.84 477
11.86 512
11.88 497
11.9 504
11.92 570
11.94 492
11.96 553
11.98 459
12 507
12.02 517
12.04 545
12.06 508
12.08 507
12.1 472
12.12 503
12.14 492
12.16 499
12.18 488
12.2 471
12.22 483
12.24 500
12.26 519
12.28 497
12.3 514
12.32 518
12.34 546
12.36 528
12.38 539
12.4 554
12.42 506
12.44 497
12.46 534
12.48 526
12.5 479
12.52 489
12.54 518
12.56 506
12.58 508
12.6 531
12.62 525
12.64 528
12.66 544
12.68 494
12.7 503
12.72 471
12.74 525
12.76 531
12.78 562
12.8 511
12.82 526
12.84 535
12.86 526
12.88 505
12.9 533
12.92 506
12.94 515
12.96 567
12.98 523
13 516
13.02 574
13.04 545
13.06 513
13.08 538
13.1 566
13.12 551
13.14 553
13.16 558
13.18 547
13.2 530
13.22 557
13.24 555
13.26 566
13.28 562
13.3 521
13.32 546
13.34 534
13.36 568
13.38 569
13.4 520
13.42 573
13.44 587
13.46 575
13.48 573
13.5 559
13.52 597
13.54 543
13.56 601
13.58 533
13.6 553
13.62 575
13.64 560
13.66 570
13.68 540
13.7 553
13.72 540
13.74 578
13.76 559
13.78 565
13.8 611
13.82 595
13.84 574
13.86 591
13.88 571
13.9 554
13.92 559
13.94 598
13.96 601
13.98 556
14 577
14.02 590
14.04 554
14.06 593
14.08 581
14.1 593
14.12 579
14.14 610
14.16 609
14.18 574
14.2 605
14.22 611
14.24 589
14.26 619
14.28 627
14.3 572
14.32 662
14.34 598
14.36 617
14.38 613
14.4 608
14.42 595
14.44 591
14.46 628
14.48 600
14.5 610
14.52 577
14.54 667
14.56 578
14.58 623
14.6 597
14.62 594
14.64 608
14.66 602
14.68 640
14.7 612
14.72 623
14.74 645
14.76 583
14.78 609
14.8 609
14.82 655
14.84 666
14.86 613
14.88 605
14.9 617
14.92 641
14.94 627
14.96 612
14.98 647
15 630
15.02 606
15.04 630
15.06 651
15.08 631
15.1 638
15.12 657
15.14 661
15.16 675
15.18 706
15.2 673
15.22 655
15.24 681
15.26 690
15.28 621
15.3 641
15.32 730
15.34 634
15.36 631
15.38 691
15.4 664
15.42 672
15.44 674
15.46 720
15.48 663
15.5 633
15.52 642
15.54 703
15.56 659
15.58 650
15.6 637
15.62 677
15.64 689
15.66 685
15.68 669
15.7 735
15.72 665
15.74 677
15.76 742
15.78 705
15.8 675
15.82 711
15.84 686
15.86 723
15.88 684
15.9 681
15.92 701
15.94 712
15.96 756
15.98 762
16 729
16.02 698
16.04 709
16.06 705
16.08 741
16.1 754
16.12 740
16.14 773
16.16 733
16.18 725
16.2 732
16.22 749
16.24 761
16.26 732
16.28 733
16.3 752
16.32 747
16.34 788
16.36 739
16.38 785
16.4 717
16.42 786
16.44 765
16.46 783
16.48 751
16.5 801
16.52 825
16.54 809
16.56 759
16.58 785
16.6 784
16.62 774
16.64 800
16.66 827
16.68 797
16.7 853
16.72 870
16.74 872
16.76 856
16.78 821
16.8 825
16.82 895
16.84 901
16.86 963
16.88 966
16.9 989
16.92 1041
16.94 1030
16.96 1205
16.98 1225
17 1295
17.02 1387
17.04 1604
17.06 1617
17.08 1577
17.1 1579
17.12 1401
17.14 1236
17.16 1092
17.18 981
17.2 967
17.22 968
17.24 904
17.26 918
17.28 898
17.3 939
17.32 869
17.34 865
17.36 861
17.38 934
17.4 949
17.42 901
17.44 917
17.46 936
17.48 902
17.5 872
17.52 962
17.54 925
17.56 976
17.58 907
17.6 928
17.62 936
17.64 938
17.66 921
17.68 889
17.7 918
17.72 928
17.74 965
17.76 986
17.78 1022
17.8 960
17.82 984
17.84 1030
17.86 937
17.88 992
17.9 954
17.92 1003
17.94 982
17.96 966
17.98 1005
18 1067
18.02 999
18.04 999
18.06 1002
18.08 1012
18.1 948
18.12 1006
18.14 1025
18.16 1016
18.18 977
18.2 1005
18.22 1002
18.24 998
18.26 1031
18.28 1018
18.3 1041
18.32 1021
18.34 1034
18.36 1087
18.38 1084
18.4 999
18.42 1049
18.44 1028
18.46 1042
18.48 1004
18.5 1059
18.52 1090
18.54 1074
18.56 1063
18.58 1064
18.6 1096
18.62 1088
18.64 1093
18.66 1067
18.68 1076
18.7 1121
18.72 1133
18.74 1090
18.76 1113
18.78 1114
18.8 1093
18.82 1101
18.84 1077
18.86 1104
18.88 1084
18.9 1128
18.92 1096
18.94 1129
18.96 1118
18.98 1162
19 1099
19.02 1120
19.04 1181
19.06 1199
19.08 1155
19.1 1185
19.12 1113
19.14 1168
19.16 1212
19.18 1171
19.2 1220
19.22 1202
19.24 1167
19.26 1163
19.28 1190
19.3 1207
19.32 1171
19.34 1229
19.36 1201
19.38 1183
19.4 1222
19.42 1253
19.44 1246
19.46 1251
19.48 1278
19.5 1289
19.52 1297
19.54 1294
19.56 1260
19.58 1332
19.6 1243
19.62 1283
19.64 1331
19.66 1251
19.68 1260
19.7 1174
19.72 1278
19.74 1300
19.76 1283
19.78 1312
19.8 1230
19.82 1314
19.84 1228
19.86 1288
19.88 1349
19.9 1240
19.92 1280
19.94 1271
19.96 1335
19.98 1283
20 1284