File: xrd-UiO-67/pxrddata/36-34.ASC
3 1416
3.02 1320
3.04 1346
3.06 1302
3.08 1291
3.1 1380
3.12 1288
3.14 1205
3.16 1258
3.18 1236
3.2 1216
3.22 1275
3.24 1205
3.26 1177
3.28 1171
3.3 1182
3.32 1225
3.34 1210
3.36 1103
3.38 1181
3.4 1153
3.42 1144
3.44 1118
3.46 1116
3.48 1146
3.5 1110
3.52 1108
3.54 1084
3.56 1071
3.58 1036
3.6 1066
3.62 1068
3.64 1039
3.66 1036
3.68 1025
3.7 1035
3.72 1063
3.74 1045
3.76 1065
3.78 1054
3.8 1037
3.82 1025
3.84 1046
3.86 1029
3.88 1037
3.9 1045
3.92 1019
3.94 995
3.96 1061
3.98 1029
4 1006
4.02 991
4.04 1010
4.06 1054
4.08 1023
4.1 972
4.12 987
4.14 970
4.16 1010
4.18 1000
4.2 928
4.22 959
4.24 998
4.26 942
4.28 1011
4.3 977
4.32 952
4.34 922
4.36 974
4.38 940
4.4 899
4.42 943
4.44 953
4.46 881
4.48 884
4.5 919
4.52 924
4.54 919
4.56 908
4.58 876
4.6 954
4.62 935
4.64 931
4.66 870
4.68 864
4.7 910
4.72 879
4.74 905
4.76 882
4.78 872
4.8 902
4.82 889
4.84 880
4.86 931
4.88 865
4.9 902
4.92 895
4.94 863
4.96 847
4.98 873
5 905
5.02 864
5.04 864
5.06 849
5.08 871
5.1 856
5.12 832
5.14 876
5.16 899
5.18 866
5.2 888
5.22 940
5.24 906
5.26 874
5.28 877
5.3 902
5.32 924
5.34 945
5.36 926
5.38 942
5.4 1000
5.42 997
5.44 1049
5.46 1147
5.48 1119
5.5 1114
5.52 1118
5.54 987
5.56 896
5.58 876
5.6 858
5.62 783
5.64 752
5.66 741
5.68 767
5.7 755
5.72 772
5.74 697
5.76 718
5.78 736
5.8 730
5.82 673
5.84 705
5.86 705
5.88 693
5.9 692
5.92 684
5.94 651
5.96 667
5.98 642
6 642
6.02 626
6.04 660
6.06 633
6.08 655
6.1 614
6.12 633
6.14 646
6.16 607
6.18 590
6.2 577
6.22 594
6.24 579
6.26 608
6.28 655
6.3 579
6.32 595
6.34 577
6.36 596
6.38 597
6.4 581
6.42 568
6.44 602
6.46 608
6.48 582
6.5 547
6.52 578
6.54 558
6.56 540
6.58 528
6.6 569
6.62 557
6.64 529
6.66 573
6.68 551
6.7 535
6.72 498
6.74 585
6.76 611
6.78 552
6.8 548
6.82 538
6.84 556
6.86 562
6.88 527
6.9 530
6.92 518
6.94 540
6.96 536
6.98 534
7 551
7.02 548
7.04 538
7.06 550
7.08 522
7.1 569
7.12 545
7.14 583
7.16 562
7.18 551
7.2 545
7.22 535
7.24 544
7.26 569
7.28 531
7.3 504
7.32 527
7.34 546
7.36 505
7.38 517
7.4 523
7.42 539
7.44 520
7.46 519
7.48 514
7.5 508
7.52 545
7.54 476
7.56 530
7.58 526
7.6 539
7.62 549
7.64 525
7.66 488
7.68 542
7.7 511
7.72 519
7.74 489
7.76 525
7.78 543
7.8 590
7.82 530
7.84 554
7.86 478
7.88 524
7.9 512
7.92 490
7.94 508
7.96 520
7.98 513
8 526
8.02 532
8.04 527
8.06 498
8.08 540
8.1 525
8.12 512
8.14 534
8.16 509
8.18 488
8.2 520
8.22 513
8.24 489
8.26 531
8.28 488
8.3 513
8.32 496
8.34 468
8.36 509
8.38 505
8.4 511
8.42 540
8.44 551
8.46 524
8.48 487
8.5 518
8.52 518
8.54 518
8.56 501
8.58 493
8.6 535
8.62 540
8.64 537
8.66 473
8.68 497
8.7 474
8.72 507
8.74 540
8.76 495
8.78 530
8.8 498
8.82 539
8.84 494
8.86 508
8.88 498
8.9 494
8.92 481
8.94 493
8.96 523
8.98 510
9 473
9.02 539
9.04 494
9.06 537
9.08 524
9.1 561
9.12 486
9.14 503
9.16 484
9.18 526
9.2 567
9.22 502
9.24 505
9.26 539
9.28 518
9.3 526
9.32 531
9.34 543
9.36 580
9.38 604
9.4 613
9.42 605
9.44 629
9.46 531
9.48 524
9.5 512
9.52 539
9.54 519
9.56 532
9.58 505
9.6 460
9.62 463
9.64 496
9.66 478
9.68 523
9.7 475
9.72 518
9.74 527
9.76 484
9.78 480
9.8 481
9.82 501
9.84 513
9.86 484
9.88 490
9.9 479
9.92 484
9.94 533
9.96 523
9.98 471
10 506
10.02 460
10.04 493
10.06 472
10.08 471
10.1 460
10.12 470
10.14 501
10.16 487
10.18 468
10.2 502
10.22 434
10.24 486
10.26 500
10.28 491
10.3 503
10.32 503
10.34 462
10.36 495
10.38 503
10.4 479
10.42 485
10.44 498
10.46 504
10.48 487
10.5 508
10.52 480
10.54 492
10.56 486
10.58 499
10.6 487
10.62 453
10.64 474
10.66 471
10.68 431
10.7 514
10.72 499
10.74 499
10.76 533
10.78 508
10.8 539
10.82 532
10.84 476
10.86 520
10.88 503
10.9 540
10.92 493
10.94 466
10.96 476
10.98 504
11 511
11.02 485
11.04 442
11.06 468
11.08 497
11.1 484
11.12 490
11.14 486
11.16 453
11.18 507
11.2 478
11.22 502
11.24 469
11.26 500
11.28 503
11.3 512
11.32 491
11.34 489
11.36 440
11.38 445
11.4 455
11.42 489
11.44 475
11.46 483
11.48 483
11.5 474
11.52 510
11.54 470
11.56 477
11.58 500
11.6 508
11.62 491
11.64 482
11.66 484
11.68 446
11.7 479
11.72 469
11.74 491
11.76 479
11.78 469
11.8 471
11.82 500
11.84 497
11.86 458
11.88 511
11.9 454
11.92 502
11.94 519
11.96 474
11.98 461
12 478
12.02 466
12.04 471
12.06 466
12.08 486
12.1 484
12.12 511
12.14 522
12.16 490
12.18 462
12.2 478
12.22 475
12.24 518
12.26 499
12.28 493
12.3 512
12.32 458
12.34 511
12.36 477
12.38 511
12.4 518
12.42 488
12.44 493
12.46 523
12.48 510
12.5 547
12.52 510
12.54 478
12.56 480
12.58 489
12.6 525
12.62 514
12.64 498
12.66 501
12.68 516
12.7 499
12.72 511
12.74 496
12.76 487
12.78 521
12.8 511
12.82 511
12.84 496
12.86 554
12.88 507
12.9 507
12.92 509
12.94 533
12.96 474
12.98 481
13 504
13.02 526
13.04 507
13.06 499
13.08 514
13.1 508
13.12 498
13.14 498
13.16 515
13.18 575
13.2 509
13.22 531
13.24 498
13.26 539
13.28 581
13.3 540
13.32 568
13.34 558
13.36 514
13.38 540
13.4 523
13.42 523
13.44 549
13.46 524
13.48 520
13.5 536
13.52 548
13.54 572
13.56 583
13.58 530
13.6 537
13.62 529
13.64 547
13.66 521
13.68 531
13.7 538
13.72 568
13.74 556
13.76 554
13.78 526
13.8 548
13.82 541
13.84 552
13.86 544
13.88 526
13.9 562
13.92 546
13.94 565
13.96 525
13.98 547
14 534
14.02 558
14.04 546
14.06 545
14.08 518
14.1 520
14.12 568
14.14 593
14.16 588
14.18 563
14.2 586
14.22 578
14.24 570
14.26 590
14.28 577
14.3 563
14.32 584
14.34 557
14.36 551
14.38 575
14.4 569
14.42 578
14.44 573
14.46 596
14.48 591
14.5 610
14.52 628
14.54 549
14.56 565
14.58 567
14.6 587
14.62 568
14.64 588
14.66 592
14.68 619
14.7 629
14.72 589
14.74 607
14.76 576
14.78 619
14.8 556
14.82 589
14.84 591
14.86 593
14.88 605
14.9 569
14.92 565
14.94 593
14.96 595
14.98 607
15 633
15.02 604
15.04 609
15.06 597
15.08 630
15.1 629
15.12 588
15.14 597
15.16 638
15.18 619
15.2 643
15.22 654
15.24 677
15.26 653
15.28 663
15.3 643
15.32 633
15.34 625
15.36 625
15.38 653
15.4 618
15.42 606
15.44 626
15.46 679
15.48 659
15.5 680
15.52 646
15.54 659
15.56 664
15.58 687
15.6 661
15.62 635
15.64 645
15.66 627
15.68 653
15.7 618
15.72 653
15.74 651
15.76 688
15.78 692
15.8 671
15.82 706
15.84 656
15.86 687
15.88 697
15.9 692
15.92 700
15.94 699
15.96 693
15.98 720
16 684
16.02 693
16.04 687
16.06 655
16.08 711
16.1 746
16.12 718
16.14 693
16.16 713
16.18 748
16.2 727
16.22 726
16.24 707
16.26 728
16.28 702
16.3 739
16.32 721
16.34 749
16.36 738
16.38 681
16.4 691
16.42 708
16.44 720
16.46 799
16.48 764
16.5 744
16.52 777
16.54 776
16.56 723
16.58 737
16.6 814
16.62 793
16.64 770
16.66 798
16.68 731
16.7 810
16.72 779
16.74 776
16.76 797
16.78 820
16.8 854
16.82 799
16.84 846
16.86 878
16.88 915
16.9 945
16.92 941
16.94 1009
16.96 1149
16.98 1150
17 1206
17.02 1356
17.04 1448
17.06 1605
17.08 1613
17.1 1568
17.12 1367
17.14 1195
17.16 1111
17.18 989
17.2 905
17.22 844
17.24 887
17.26 904
17.28 835
17.3 882
17.32 825
17.34 854
17.36 901
17.38 879
17.4 894
17.42 885
17.44 845
17.46 869
17.48 830
17.5 880
17.52 860
17.54 835
17.56 889
17.58 895
17.6 856
17.62 869
17.64 890
17.66 922
17.68 896
17.7 876
17.72 942
17.74 903
17.76 882
17.78 944
17.8 934
17.82 864
17.84 879
17.86 913
17.88 924
17.9 958
17.92 904
17.94 919
17.96 885
17.98 920
18 984
18.02 893
18.04 918
18.06 949
18.08 948
18.1 943
18.12 905
18.14 941
18.16 885
18.18 941
18.2 966
18.22 992
18.24 957
18.26 962
18.28 938
18.3 964
18.32 1002
18.34 963
18.36 959
18.38 1045
18.4 940
18.42 981
18.44 989
18.46 995
18.48 965
18.5 970
18.52 1011
18.54 983
18.56 980
18.58 1066
18.6 1025
18.62 995
18.64 1057
18.66 1019
18.68 1011
18.7 1042
18.72 1025
18.74 1077
18.76 1049
18.78 1002
18.8 1094
18.82 1047
18.84 1030
18.86 1067
18.88 1052
18.9 1007
18.92 1019
18.94 1047
18.96 1131
18.98 1083
19 1082
19.02 1059
19.04 1049
19.06 1058
19.08 1103
19.1 1070
19.12 1080
19.14 1094
19.16 1063
19.18 1130
19.2 1062
19.22 1115
19.24 1141
19.26 1149
19.28 1169
19.3 1107
19.32 1093
19.34 1134
19.36 1153
19.38 1154
19.4 1119
19.42 1132
19.44 1159
19.46 1119
19.48 1175
19.5 1145
19.52 1215
19.54 1187
19.56 1128
19.58 1122
19.6 1159
19.62 1212
19.64 1151
19.66 1203
19.68 1262
19.7 1190
19.72 1172
19.74 1185
19.76 1169
19.78 1181
19.8 1208
19.82 1218
19.84 1212
19.86 1238
19.88 1230
19.9 1183
19.92 1259
19.94 1181
19.96 1224
19.98 1271
20 1226