File: xrd-UiO-67/pxrddata/36-38.ASC
3 2451
3.02 2337
3.04 2362
3.06 2268
3.08 2221
3.1 2209
3.12 2180
3.14 2125
3.16 2194
3.18 2070
3.2 1958
3.22 1972
3.24 1969
3.26 1915
3.28 1819
3.3 1784
3.32 1888
3.34 1783
3.36 1859
3.38 1763
3.4 1740
3.42 1754
3.44 1771
3.46 1721
3.48 1654
3.5 1639
3.52 1677
3.54 1640
3.56 1635
3.58 1611
3.6 1537
3.62 1511
3.64 1506
3.66 1501
3.68 1492
3.7 1373
3.72 1457
3.74 1415
3.76 1407
3.78 1441
3.8 1376
3.82 1295
3.84 1320
3.86 1282
3.88 1296
3.9 1294
3.92 1334
3.94 1298
3.96 1218
3.98 1203
4 1294
4.02 1235
4.04 1247
4.06 1181
4.08 1212
4.1 1152
4.12 1159
4.14 1146
4.16 1196
4.18 1164
4.2 1074
4.22 1171
4.24 1124
4.26 1063
4.28 1040
4.3 1111
4.32 1065
4.34 1083
4.36 1038
4.38 1060
4.4 1058
4.42 994
4.44 1035
4.46 1078
4.48 1058
4.5 1010
4.52 1006
4.54 990
4.56 1002
4.58 998
4.6 986
4.62 1005
4.64 953
4.66 957
4.68 984
4.7 992
4.72 954
4.74 986
4.76 1003
4.78 976
4.8 982
4.82 984
4.84 1039
4.86 942
4.88 993
4.9 990
4.92 1025
4.94 999
4.96 1008
4.98 992
5 989
5.02 967
5.04 996
5.06 982
5.08 1022
5.1 1035
5.12 1099
5.14 1111
5.16 1156
5.18 1186
5.2 1155
5.22 1197
5.24 1326
5.26 1338
5.28 1369
5.3 1376
5.32 1502
5.34 1583
5.36 1706
5.38 1932
5.4 2152
5.42 2381
5.44 2562
5.46 2266
5.48 1891
5.5 1418
5.52 1246
5.54 1171
5.56 1037
5.58 1006
5.6 1018
5.62 949
5.64 911
5.66 889
5.68 950
5.7 852
5.72 811
5.74 828
5.76 827
5.78 888
5.8 805
5.82 795
5.84 822
5.86 760
5.88 783
5.9 733
5.92 742
5.94 748
5.96 759
5.98 740
6 718
6.02 709
6.04 719
6.06 701
6.08 742
6.1 705
6.12 682
6.14 674
6.16 678
6.18 683
6.2 671
6.22 648
6.24 677
6.26 676
6.28 692
6.3 699
6.32 620
6.34 669
6.36 649
6.38 636
6.4 647
6.42 625
6.44 663
6.46 612
6.48 628
6.5 644
6.52 631
6.54 671
6.56 672
6.58 637
6.6 645
6.62 619
6.64 624
6.66 692
6.68 641
6.7 604
6.72 610
6.74 632
6.76 649
6.78 622
6.8 626
6.82 620
6.84 635
6.86 655
6.88 596
6.9 587
6.92 612
6.94 607
6.96 609
6.98 560
7 575
7.02 626
7.04 641
7.06 622
7.08 575
7.1 592
7.12 640
7.14 611
7.16 637
7.18 611
7.2 585
7.22 576
7.24 607
7.26 629
7.28 597
7.3 565
7.32 607
7.34 598
7.36 568
7.38 570
7.4 561
7.42 543
7.44 575
7.46 612
7.48 607
7.5 590
7.52 578
7.54 571
7.56 594
7.58 581
7.6 552
7.62 586
7.64 582
7.66 568
7.68 584
7.7 548
7.72 512
7.74 563
7.76 547
7.78 528
7.8 542
7.82 528
7.84 572
7.86 581
7.88 524
7.9 584
7.92 591
7.94 571
7.96 537
7.98 557
8 570
8.02 545
8.04 547
8.06 499
8.08 557
8.1 557
8.12 580
8.14 572
8.16 553
8.18 513
8.2 547
8.22 552
8.24 539
8.26 571
8.28 535
8.3 571
8.32 530
8.34 549
8.36 546
8.38 512
8.4 499
8.42 557
8.44 559
8.46 510
8.48 558
8.5 516
8.52 540
8.54 583
8.56 510
8.58 546
8.6 493
8.62 506
8.64 565
8.66 547
8.68 543
8.7 521
8.72 510
8.74 516
8.76 535
8.78 503
8.8 535
8.82 472
8.84 550
8.86 531
8.88 578
8.9 503
8.92 539
8.94 547
8.96 516
8.98 539
9 572
9.02 586
9.04 569
9.06 578
9.08 522
9.1 577
9.12 600
9.14 573
9.16 588
9.18 634
9.2 691
9.22 657
9.24 651
9.26 748
9.28 808
9.3 829
9.32 898
9.34 965
9.36 1037
9.38 953
9.4 724
9.42 676
9.44 616
9.46 571
9.48 568
9.5 478
9.52 527
9.54 520
9.56 547
9.58 506
9.6 564
9.62 503
9.64 512
9.66 545
9.68 508
9.7 487
9.72 544
9.74 560
9.76 509
9.78 526
9.8 489
9.82 487
9.84 480
9.86 499
9.88 510
9.9 519
9.92 531
9.94 547
9.96 513
9.98 508
10 538
10.02 491
10.04 514
10.06 503
10.08 473
10.1 509
10.12 481
10.14 485
10.16 506
10.18 546
10.2 506
10.22 494
10.24 492
10.26 485
10.28 534
10.3 523
10.32 559
10.34 528
10.36 506
10.38 519
10.4 502
10.42 531
10.44 535
10.46 502
10.48 548
10.5 531
10.52 551
10.54 514
10.56 533
10.58 563
10.6 590
10.62 547
10.64 583
10.66 553
10.68 595
10.7 637
10.72 689
10.74 674
10.76 728
10.78 831
10.8 790
10.82 728
10.84 685
10.86 579
10.88 602
10.9 533
10.92 536
10.94 601
10.96 552
10.98 534
11 555
11.02 525
11.04 519
11.06 524
11.08 495
11.1 519
11.12 526
11.14 491
11.16 485
11.18 503
11.2 500
11.22 477
11.24 478
11.26 501
11.28 527
11.3 484
11.32 520
11.34 510
11.36 521
11.38 523
11.4 506
11.42 524
11.44 497
11.46 496
11.48 466
11.5 472
11.52 463
11.54 510
11.56 507
11.58 504
11.6 493
11.62 521
11.64 466
11.66 516
11.68 503
11.7 500
11.72 502
11.74 473
11.76 496
11.78 493
11.8 504
11.82 527
11.84 501
11.86 524
11.88 474
11.9 491
11.92 494
11.94 517
11.96 507
11.98 513
12 488
12.02 492
12.04 512
12.06 503
12.08 482
12.1 497
12.12 502
12.14 519
12.16 537
12.18 485
12.2 504
12.22 470
12.24 544
12.26 544
12.28 518
12.3 514
12.32 538
12.34 512
12.36 532
12.38 471
12.4 519
12.42 500
12.44 518
12.46 544
12.48 555
12.5 505
12.52 510
12.54 517
12.56 520
12.58 508
12.6 484
12.62 516
12.64 529
12.66 528
12.68 585
12.7 556
12.72 500
12.74 546
12.76 529
12.78 524
12.8 555
12.82 532
12.84 494
12.86 559
12.88 510
12.9 532
12.92 514
12.94 498
12.96 514
12.98 571
13 517
13.02 497
13.04 511
13.06 547
13.08 569
13.1 539
13.12 527
13.14 501
13.16 528
13.18 549
13.2 564
13.22 538
13.24 557
13.26 555
13.28 547
13.3 569
13.32 532
13.34 561
13.36 543
13.38 560
13.4 561
13.42 601
13.44 544
13.46 579
13.48 571
13.5 559
13.52 539
13.54 542
13.56 553
13.58 563
13.6 566
13.62 575
13.64 513
13.66 565
13.68 577
13.7 530
13.72 501
13.74 541
13.76 560
13.78 568
13.8 601
13.82 580
13.84 572
13.86 588
13.88 588
13.9 567
13.92 599
13.94 605
13.96 582
13.98 575
14 562
14.02 558
14.04 554
14.06 608
14.08 579
14.1 560
14.12 512
14.14 564
14.16 584
14.18 621
14.2 610
14.22 611
14.24 608
14.26 640
14.28 612
14.3 578
14.32 606
14.34 601
14.36 581
14.38 583
14.4 640
14.42 603
14.44 578
14.46 546
14.48 611
14.5 583
14.52 607
14.54 611
14.56 575
14.58 624
14.6 594
14.62 630
14.64 552
14.66 647
14.68 602
14.7 600
14.72 587
14.74 592
14.76 555
14.78 573
14.8 590
14.82 615
14.84 623
14.86 615
14.88 667
14.9 616
14.92 622
14.94 590
14.96 566
14.98 591
15 626
15.02 592
15.04 643
15.06 578
15.08 602
15.1 614
15.12 628
15.14 625
15.16 649
15.18 632
15.2 638
15.22 617
15.24 605
15.26 629
15.28 636
15.3 618
15.32 645
15.34 643
15.36 631
15.38 611
15.4 648
15.42 638
15.44 620
15.46 670
15.48 692
15.5 647
15.52 617
15.54 629
15.56 649
15.58 646
15.6 645
15.62 730
15.64 668
15.66 641
15.68 640
15.7 654
15.72 637
15.74 653
15.76 713
15.78 671
15.8 673
15.82 675
15.84 683
15.86 651
15.88 695
15.9 653
15.92 678
15.94 674
15.96 676
15.98 638
16 681
16.02 722
16.04 664
16.06 725
16.08 702
16.1 642
16.12 665
16.14 736
16.16 750
16.18 747
16.2 709
16.22 719
16.24 675
16.26 667
16.28 711
16.3 722
16.32 719
16.34 699
16.36 761
16.38 705
16.4 737
16.42 748
16.44 732
16.46 735
16.48 706
16.5 752
16.52 733
16.54 763
16.56 783
16.58 723
16.6 784
16.62 751
16.64 739
16.66 797
16.68 835
16.7 818
16.72 758
16.74 801
16.76 830
16.78 791
16.8 826
16.82 814
16.84 806
16.86 847
16.88 838
16.9 883
16.92 861
16.94 968
16.96 1051
16.98 1093
17 1149
17.02 1171
17.04 1269
17.06 1169
17.08 1032
17.1 929
17.12 863
17.14 855
17.16 829
17.18 822
17.2 849
17.22 838
17.24 835
17.26 882
17.28 857
17.3 892
17.32 833
17.34 910
17.36 842
17.38 823
17.4 833
17.42 844
17.44 838
17.46 875
17.48 857
17.5 916
17.52 874
17.54 876
17.56 917
17.58 838
17.6 911
17.62 856
17.64 869
17.66 863
17.68 840
17.7 900
17.72 868
17.74 901
17.76 905
17.78 898
17.8 903
17.82 827
17.84 844
17.86 900
17.88 913
17.9 921
17.92 914
17.94 912
17.96 920
17.98 885
18 949
18.02 917
18.04 891
18.06 901
18.08 875
18.1 897
18.12 943
18.14 916
18.16 906
18.18 973
18.2 917
18.22 969
18.24 947
18.26 944
18.28 956
18.3 980
18.32 950
18.34 989
18.36 982
18.38 939
18.4 986
18.42 912
18.44 950
18.46 972
18.48 1005
18.5 967
18.52 981
18.54 1023
18.56 932
18.58 961
18.6 940
18.62 1012
18.64 995
18.66 1006
18.68 1032
18.7 1023
18.72 1039
18.74 1058
18.76 1049
18.78 1062
18.8 1009
18.82 997
18.84 1003
18.86 981
18.88 995
18.9 1016
18.92 1018
18.94 1022
18.96 980
18.98 1009
19 1004
19.02 1065
19.04 1032
19.06 1045
19.08 998
19.1 1027
19.12 1052
19.14 1081
19.16 1044
19.18 1070
19.2 1101
19.22 1062
19.24 1068
19.26 1160
19.28 1134
19.3 1100
19.32 1071
19.34 1102
19.36 1139
19.38 1147
19.4 1174
19.42 1213
19.44 1188
19.46 1206
19.48 1157
19.5 1219
19.52 1213
19.54 1093
19.56 1134
19.58 1111
19.6 1141
19.62 1142
19.64 1149
19.66 1131
19.68 1225
19.7 1146
19.72 1202
19.74 1131
19.76 1153
19.78 1172
19.8 1133
19.82 1186
19.84 1117
19.86 1135
19.88 1163
19.9 1130
19.92 1152
19.94 1192
19.96 1155
19.98 1147
20 1096