File: xrd-UiO-67/pxrddata/36-39.ASC
3 1587
3.02 1382
3.04 1421
3.06 1388
3.08 1399
3.1 1401
3.12 1392
3.14 1366
3.16 1352
3.18 1349
3.2 1340
3.22 1294
3.24 1355
3.26 1292
3.28 1238
3.3 1306
3.32 1317
3.34 1266
3.36 1269
3.38 1258
3.4 1226
3.42 1186
3.44 1242
3.46 1257
3.48 1175
3.5 1169
3.52 1207
3.54 1130
3.56 1132
3.58 1135
3.6 1161
3.62 1103
3.64 1149
3.66 1120
3.68 1106
3.7 1057
3.72 1092
3.74 1067
3.76 1115
3.78 1084
3.8 1064
3.82 1037
3.84 1016
3.86 1035
3.88 995
3.9 949
3.92 1022
3.94 1085
3.96 962
3.98 1015
4 959
4.02 995
4.04 1004
4.06 949
4.08 928
4.1 964
4.12 927
4.14 937
4.16 885
4.18 909
4.2 925
4.22 911
4.24 900
4.26 904
4.28 875
4.3 862
4.32 869
4.34 872
4.36 851
4.38 846
4.4 836
4.42 890
4.44 831
4.46 770
4.48 874
4.5 864
4.52 811
4.54 855
4.56 791
4.58 794
4.6 769
4.62 840
4.64 790
4.66 812
4.68 785
4.7 798
4.72 820
4.74 799
4.76 764
4.78 783
4.8 826
4.82 774
4.84 743
4.86 720
4.88 790
4.9 788
4.92 737
4.94 760
4.96 738
4.98 779
5 777
5.02 755
5.04 830
5.06 780
5.08 713
5.1 753
5.12 766
5.14 803
5.16 751
5.18 755
5.2 725
5.22 740
5.24 777
5.26 773
5.28 749
5.3 795
5.32 768
5.34 803
5.36 784
5.38 838
5.4 814
5.42 799
5.44 853
5.46 879
5.48 864
5.5 858
5.52 889
5.54 831
5.56 888
5.58 884
5.6 833
5.62 783
5.64 780
5.66 732
5.68 715
5.7 783
5.72 716
5.74 748
5.76 691
5.78 727
5.8 719
5.82 714
5.84 711
5.86 665
5.88 688
5.9 694
5.92 690
5.94 715
5.96 659
5.98 651
6 655
6.02 663
6.04 633
6.06 683
6.08 670
6.1 664
6.12 684
6.14 624
6.16 656
6.18 659
6.2 624
6.22 653
6.24 632
6.26 616
6.28 618
6.3 637
6.32 625
6.34 623
6.36 602
6.38 605
6.4 612
6.42 595
6.44 609
6.46 610
6.48 634
6.5 646
6.52 648
6.54 596
6.56 595
6.58 600
6.6 591
6.62 657
6.64 615
6.66 587
6.68 584
6.7 589
6.72 597
6.74 588
6.76 580
6.78 571
6.8 591
6.82 612
6.84 607
6.86 596
6.88 544
6.9 578
6.92 599
6.94 591
6.96 565
6.98 605
7 571
7.02 570
7.04 604
7.06 585
7.08 603
7.1 535
7.12 585
7.14 599
7.16 557
7.18 560
7.2 571
7.22 567
7.24 559
7.26 591
7.28 533
7.3 558
7.32 582
7.34 629
7.36 595
7.38 552
7.4 579
7.42 604
7.44 537
7.46 527
7.48 579
7.5 551
7.52 576
7.54 522
7.56 567
7.58 562
7.6 582
7.62 537
7.64 576
7.66 565
7.68 561
7.7 577
7.72 589
7.74 548
7.76 508
7.78 554
7.8 593
7.82 582
7.84 560
7.86 518
7.88 548
7.9 529
7.92 576
7.94 543
7.96 537
7.98 541
8 571
8.02 513
8.04 585
8.06 557
8.08 535
8.1 537
8.12 537
8.14 547
8.16 534
8.18 524
8.2 528
8.22 537
8.24 534
8.26 532
8.28 528
8.3 522
8.32 546
8.34 555
8.36 528
8.38 566
8.4 544
8.42 531
8.44 511
8.46 535
8.48 529
8.5 533
8.52 553
8.54 558
8.56 539
8.58 564
8.6 584
8.62 515
8.64 558
8.66 543
8.68 500
8.7 538
8.72 536
8.74 492
8.76 562
8.78 522
8.8 581
8.82 480
8.84 511
8.86 515
8.88 513
8.9 520
8.92 506
8.94 500
8.96 545
8.98 524
9 533
9.02 527
9.04 498
9.06 549
9.08 513
9.1 517
9.12 532
9.14 529
9.16 526
9.18 573
9.2 517
9.22 517
9.24 557
9.26 546
9.28 551
9.3 575
9.32 571
9.34 580
9.36 575
9.38 624
9.4 599
9.42 599
9.44 652
9.46 586
9.48 659
9.5 622
9.52 605
9.54 543
9.56 526
9.58 564
9.6 493
9.62 519
9.64 553
9.66 562
9.68 536
9.7 556
9.72 516
9.74 549
9.76 525
9.78 495
9.8 493
9.82 526
9.84 583
9.86 516
9.88 520
9.9 484
9.92 502
9.94 531
9.96 518
9.98 496
10 528
10.02 480
10.04 500
10.06 500
10.08 521
10.1 505
10.12 552
10.14 538
10.16 516
10.18 484
10.2 538
10.22 510
10.24 506
10.26 510
10.28 498
10.3 483
10.32 491
10.34 495
10.36 502
10.38 502
10.4 529
10.42 523
10.44 503
10.46 510
10.48 537
10.5 542
10.52 511
10.54 522
10.56 506
10.58 488
10.6 516
10.62 522
10.64 524
10.66 487
10.68 530
10.7 525
10.72 540
10.74 498
10.76 533
10.78 486
10.8 510
10.82 490
10.84 514
10.86 538
10.88 509
10.9 509
10.92 539
10.94 552
10.96 516
10.98 540
11 510
11.02 529
11.04 542
11.06 526
11.08 530
11.1 489
11.12 490
11.14 530
11.16 475
11.18 517
11.2 514
11.22 544
11.24 536
11.26 521
11.28 516
11.3 485
11.32 487
11.34 487
11.36 512
11.38 541
11.4 540
11.42 540
11.44 525
11.46 507
11.48 501
11.5 513
11.52 542
11.54 512
11.56 485
11.58 497
11.6 536
11.62 557
11.64 508
11.66 512
11.68 491
11.7 522
11.72 520
11.74 523
11.76 516
11.78 465
11.8 528
11.82 556
11.84 535
11.86 553
11.88 519
11.9 509
11.92 549
11.94 515
11.96 562
11.98 524
12 550
12.02 550
12.04 534
12.06 481
12.08 502
12.1 471
12.12 502
12.14 564
12.16 515
12.18 546
12.2 502
12.22 514
12.24 534
12.26 538
12.28 545
12.3 549
12.32 512
12.34 508
12.36 515
12.38 538
12.4 542
12.42 540
12.44 525
12.46 543
12.48 516
12.5 548
12.52 546
12.54 513
12.56 533
12.58 578
12.6 578
12.62 536
12.64 556
12.66 568
12.68 529
12.7 553
12.72 518
12.74 559
12.76 533
12.78 556
12.8 534
12.82 554
12.84 510
12.86 526
12.88 570
12.9 533
12.92 551
12.94 562
12.96 565
12.98 544
13 551
13.02 579
13.04 541
13.06 563
13.08 536
13.1 567
13.12 550
13.14 567
13.16 541
13.18 584
13.2 526
13.22 574
13.24 565
13.26 547
13.28 517
13.3 572
13.32 587
13.34 571
13.36 531
13.38 551
13.4 561
13.42 552
13.44 569
13.46 602
13.48 594
13.5 558
13.52 585
13.54 608
13.56 604
13.58 567
13.6 597
13.62 559
13.64 570
13.66 578
13.68 576
13.7 561
13.72 601
13.74 607
13.76 579
13.78 606
13.8 630
13.82 622
13.84 590
13.86 589
13.88 580
13.9 602
13.92 552
13.94 598
13.96 572
13.98 585
14 603
14.02 594
14.04 572
14.06 634
14.08 637
14.1 597
14.12 602
14.14 608
14.16 631
14.18 666
14.2 631
14.22 633
14.24 639
14.26 631
14.28 630
14.3 620
14.32 621
14.34 618
14.36 601
14.38 639
14.4 648
14.42 648
14.44 612
14.46 615
14.48 623
14.5 691
14.52 645
14.54 652
14.56 637
14.58 633
14.6 627
14.62 644
14.64 693
14.66 627
14.68 633
14.7 649
14.72 719
14.74 650
14.76 634
14.78 644
14.8 646
14.82 643
14.84 631
14.86 647
14.88 646
14.9 689
14.92 668
14.94 689
14.96 628
14.98 689
15 683
15.02 713
15.04 657
15.06 703
15.08 662
15.1 698
15.12 695
15.14 716
15.16 694
15.18 678
15.2 642
15.22 688
15.24 677
15.26 677
15.28 722
15.3 702
15.32 695
15.34 639
15.36 683
15.38 685
15.4 695
15.42 700
15.44 709
15.46 688
15.48 656
15.5 735
15.52 717
15.54 704
15.56 691
15.58 744
15.6 728
15.62 741
15.64 716
15.66 734
15.68 725
15.7 717
15.72 731
15.74 705
15.76 706
15.78 751
15.8 790
15.82 745
15.84 761
15.86 719
15.88 742
15.9 735
15.92 783
15.94 758
15.96 756
15.98 758
16 766
16.02 764
16.04 743
16.06 753
16.08 782
16.1 754
16.12 767
16.14 768
16.16 801
16.18 797
16.2 779
16.22 744
16.24 789
16.26 786
16.28 803
16.3 825
16.32 820
16.34 782
16.36 799
16.38 783
16.4 843
16.42 807
16.44 823
16.46 789
16.48 850
16.5 780
16.52 796
16.54 792
16.56 887
16.58 873
16.6 831
16.62 869
16.64 881
16.66 889
16.68 822
16.7 843
16.72 854
16.74 865
16.76 813
16.78 875
16.8 855
16.82 899
16.84 888
16.86 921
16.88 945
16.9 993
16.92 950
16.94 1007
16.96 1010
16.98 1065
17 1098
17.02 1147
17.04 1197
17.06 1276
17.08 1244
17.1 1206
17.12 1210
17.14 1180
17.16 1027
17.18 993
17.2 989
17.22 969
17.24 941
17.26 911
17.28 883
17.3 893
17.32 925
17.34 940
17.36 1004
17.38 963
17.4 925
17.42 929
17.44 908
17.46 952
17.48 932
17.5 954
17.52 954
17.54 958
17.56 996
17.58 936
17.6 969
17.62 985
17.64 984
17.66 932
17.68 981
17.7 948
17.72 961
17.74 984
17.76 1009
17.78 1003
17.8 1002
17.82 971
17.84 935
17.86 965
17.88 1066
17.9 1002
17.92 1001
17.94 969
17.96 1010
17.98 1044
18 1059
18.02 1029
18.04 1036
18.06 976
18.08 1067
18.1 1089
18.12 1037
18.14 1058
18.16 1059
18.18 1060
18.2 1093
18.22 1082
18.24 1120
18.26 1114
18.28 1065
18.3 1000
18.32 1034
18.34 1059
18.36 1147
18.38 1047
18.4 1092
18.42 1041
18.44 1150
18.46 1090
18.48 1081
18.5 1135
18.52 1032
18.54 1148
18.56 1146
18.58 1159
18.6 1176
18.62 1140
18.64 1179
18.66 1179
18.68 1101
18.7 1180
18.72 1159
18.74 1161
18.76 1175
18.78 1190
18.8 1119
18.82 1160
18.84 1163
18.86 1154
18.88 1224
18.9 1232
18.92 1161
18.94 1208
18.96 1201
18.98 1219
19 1188
19.02 1195
19.04 1162
19.06 1289
19.08 1221
19.1 1174
19.12 1209
19.14 1191
19.16 1258
19.18 1312
19.2 1322
19.22 1249
19.24 1257
19.26 1253
19.28 1223
19.3 1340
19.32 1357
19.34 1250
19.36 1229
19.38 1241
19.4 1254
19.42 1304
19.44 1295
19.46 1277
19.48 1299
19.5 1372
19.52 1283
19.54 1320
19.56 1266
19.58 1292
19.6 1286
19.62 1340
19.64 1348
19.66 1295
19.68 1358
19.7 1347
19.72 1369
19.74 1327
19.76 1348
19.78 1313
19.8 1267
19.82 1343
19.84 1308
19.86 1345
19.88 1370
19.9 1377
19.92 1407
19.94 1412
19.96 1438
19.98 1338
20 1355