File: xrd-UiO-67/pxrddata/36-33.ASC
3 1183
3.02 1173
3.04 1088
3.06 1074
3.08 1027
3.1 1058
3.12 1029
3.14 966
3.16 1021
3.18 1073
3.2 982
3.22 1009
3.24 1010
3.26 970
3.28 1001
3.3 961
3.32 947
3.34 925
3.36 908
3.38 906
3.4 892
3.42 922
3.44 913
3.46 932
3.48 858
3.5 872
3.52 897
3.54 860
3.56 837
3.58 841
3.6 861
3.62 857
3.64 836
3.66 874
3.68 824
3.7 859
3.72 852
3.74 776
3.76 803
3.78 769
3.8 811
3.82 820
3.84 868
3.86 804
3.88 785
3.9 793
3.92 835
3.94 743
3.96 794
3.98 715
4 774
4.02 763
4.04 758
4.06 769
4.08 787
4.1 784
4.12 733
4.14 747
4.16 702
4.18 710
4.2 731
4.22 728
4.24 759
4.26 752
4.28 687
4.3 713
4.32 716
4.34 749
4.36 713
4.38 685
4.4 721
4.42 737
4.44 686
4.46 684
4.48 681
4.5 673
4.52 683
4.54 734
4.56 711
4.58 676
4.6 661
4.62 669
4.64 675
4.66 710
4.68 695
4.7 709
4.72 653
4.74 676
4.76 640
4.78 708
4.8 681
4.82 643
4.84 618
4.86 663
4.88 700
4.9 632
4.92 690
4.94 703
4.96 709
4.98 674
5 732
5.02 673
5.04 691
5.06 718
5.08 730
5.1 677
5.12 704
5.14 749
5.16 669
5.18 760
5.2 729
5.22 732
5.24 727
5.26 817
5.28 815
5.3 797
5.32 843
5.34 910
5.36 949
5.38 920
5.4 965
5.42 1042
5.44 1072
5.46 1177
5.48 1166
5.5 1316
5.52 1451
5.54 1439
5.56 1522
5.58 1572
5.6 1503
5.62 1194
5.64 973
5.66 868
5.68 830
5.7 745
5.72 774
5.74 707
5.76 749
5.78 700
5.8 757
5.82 658
5.84 658
5.86 632
5.88 640
5.9 584
5.92 620
5.94 585
5.96 578
5.98 603
6 534
6.02 584
6.04 542
6.06 531
6.08 532
6.1 555
6.12 563
6.14 526
6.16 488
6.18 530
6.2 514
6.22 536
6.24 514
6.26 484
6.28 484
6.3 505
6.32 481
6.34 491
6.36 512
6.38 488
6.4 493
6.42 482
6.44 460
6.46 452
6.48 492
6.5 506
6.52 464
6.54 495
6.56 518
6.58 475
6.6 495
6.62 444
6.64 465
6.66 499
6.68 449
6.7 406
6.72 474
6.74 463
6.76 506
6.78 496
6.8 436
6.82 456
6.84 456
6.86 447
6.88 440
6.9 444
6.92 456
6.94 478
6.96 403
6.98 445
7 450
7.02 428
7.04 450
7.06 437
7.08 451
7.1 412
7.12 463
7.14 413
7.16 427
7.18 445
7.2 417
7.22 450
7.24 451
7.26 466
7.28 384
7.3 411
7.32 427
7.34 419
7.36 438
7.38 402
7.4 426
7.42 416
7.44 436
7.46 453
7.48 425
7.5 446
7.52 421
7.54 421
7.56 426
7.58 444
7.6 420
7.62 405
7.64 404
7.66 413
7.68 409
7.7 419
7.72 435
7.74 448
7.76 414
7.78 403
7.8 420
7.82 426
7.84 434
7.86 415
7.88 420
7.9 417
7.92 425
7.94 387
7.96 379
7.98 404
8 407
8.02 427
8.04 410
8.06 438
8.08 390
8.1 421
8.12 401
8.14 406
8.16 417
8.18 425
8.2 443
8.22 435
8.24 431
8.26 431
8.28 421
8.3 409
8.32 413
8.34 412
8.36 393
8.38 423
8.4 452
8.42 391
8.44 375
8.46 413
8.48 414
8.5 402
8.52 375
8.54 392
8.56 403
8.58 408
8.6 393
8.62 388
8.64 395
8.66 427
8.68 393
8.7 400
8.72 385
8.74 386
8.76 394
8.78 410
8.8 390
8.82 406
8.84 391
8.86 378
8.88 388
8.9 405
8.92 393
8.94 402
8.96 384
8.98 407
9 394
9.02 431
9.04 401
9.06 426
9.08 444
9.1 431
9.12 426
9.14 414
9.16 421
9.18 472
9.2 442
9.22 442
9.24 447
9.26 438
9.28 428
9.3 444
9.32 482
9.34 521
9.36 514
9.38 544
9.4 584
9.42 601
9.44 582
9.46 584
9.48 641
9.5 629
9.52 630
9.54 563
9.56 507
9.58 445
9.6 443
9.62 397
9.64 428
9.66 390
9.68 402
9.7 404
9.72 423
9.74 361
9.76 421
9.78 401
9.8 418
9.82 371
9.84 363
9.86 381
9.88 359
9.9 399
9.92 400
9.94 358
9.96 372
9.98 373
10 416
10.02 398
10.04 380
10.06 396
10.08 381
10.1 379
10.12 347
10.14 389
10.16 387
10.18 352
10.2 377
10.22 381
10.24 410
10.26 394
10.28 433
10.3 391
10.32 369
10.34 394
10.36 385
10.38 383
10.4 375
10.42 363
10.44 388
10.46 383
10.48 395
10.5 411
10.52 413
10.54 420
10.56 408
10.58 387
10.6 366
10.62 373
10.64 391
10.66 411
10.68 417
10.7 425
10.72 405
10.74 417
10.76 426
10.78 421
10.8 410
10.82 421
10.84 439
10.86 494
10.88 469
10.9 521
10.92 525
10.94 506
10.96 578
10.98 520
11 461
11.02 425
11.04 404
11.06 417
11.08 421
11.1 429
11.12 391
11.14 396
11.16 432
11.18 395
11.2 389
11.22 394
11.24 434
11.26 398
11.28 403
11.3 361
11.32 389
11.34 362
11.36 365
11.38 373
11.4 342
11.42 377
11.44 378
11.46 362
11.48 341
11.5 371
11.52 342
11.54 389
11.56 357
11.58 402
11.6 385
11.62 383
11.64 390
11.66 387
11.68 385
11.7 354
11.72 379
11.74 377
11.76 384
11.78 369
11.8 387
11.82 361
11.84 406
11.86 399
11.88 367
11.9 374
11.92 374
11.94 417
11.96 363
11.98 394
12 394
12.02 388
12.04 381
12.06 362
12.08 381
12.1 407
12.12 389
12.14 372
12.16 390
12.18 389
12.2 365
12.22 392
12.24 400
12.26 390
12.28 371
12.3 394
12.32 373
12.34 381
12.36 387
12.38 412
12.4 367
12.42 398
12.44 388
12.46 407
12.48 374
12.5 413
12.52 394
12.54 383
12.56 438
12.58 375
12.6 373
12.62 366
12.64 390
12.66 364
12.68 376
12.7 395
12.72 392
12.74 400
12.76 405
12.78 360
12.8 396
12.82 408
12.84 415
12.86 383
12.88 410
12.9 381
12.92 373
12.94 401
12.96 395
12.98 385
13 362
13.02 402
13.04 389
13.06 388
13.08 401
13.1 393
13.12 380
13.14 368
13.16 423
13.18 391
13.2 402
13.22 391
13.24 388
13.26 404
13.28 389
13.3 362
13.32 403
13.34 400
13.36 435
13.38 400
13.4 434
13.42 398
13.44 392
13.46 431
13.48 430
13.5 422
13.52 425
13.54 405
13.56 434
13.58 393
13.6 414
13.62 434
13.64 431
13.66 425
13.68 410
13.7 406
13.72 404
13.74 399
13.76 418
13.78 429
13.8 391
13.82 410
13.84 407
13.86 407
13.88 416
13.9 405
13.92 425
13.94 411
13.96 368
13.98 387
14 423
14.02 393
14.04 448
14.06 411
14.08 387
14.1 435
14.12 396
14.14 438
14.16 453
14.18 382
14.2 416
14.22 420
14.24 424
14.26 440
14.28 436
14.3 446
14.32 419
14.34 455
14.36 430
14.38 439
14.4 463
14.42 468
14.44 436
14.46 422
14.48 433
14.5 472
14.52 417
14.54 432
14.56 467
14.58 441
14.6 475
14.62 480
14.64 445
14.66 436
14.68 454
14.7 462
14.72 467
14.74 497
14.76 432
14.78 416
14.8 427
14.82 453
14.84 423
14.86 436
14.88 439
14.9 454
14.92 476
14.94 457
14.96 444
14.98 451
15 441
15.02 433
15.04 465
15.06 470
15.08 449
15.1 491
15.12 454
15.14 446
15.16 429
15.18 447
15.2 433
15.22 457
15.24 448
15.26 470
15.28 470
15.3 461
15.32 443
15.34 485
15.36 455
15.38 441
15.4 473
15.42 478
15.44 473
15.46 459
15.48 490
15.5 499
15.52 482
15.54 482
15.56 454
15.58 454
15.6 446
15.62 509
15.64 464
15.66 478
15.68 499
15.7 501
15.72 463
15.74 491
15.76 518
15.78 473
15.8 467
15.82 484
15.84 486
15.86 515
15.88 503
15.9 468
15.92 528
15.94 494
15.96 521
15.98 521
16 510
16.02 494
16.04 523
16.06 503
16.08 519
16.1 531
16.12 489
16.14 516
16.16 493
16.18 528
16.2 522
16.22 510
16.24 521
16.26 525
16.28 530
16.3 484
16.32 534
16.34 546
16.36 517
16.38 512
16.4 525
16.42 504
16.44 496
16.46 535
16.48 575
16.5 486
16.52 587
16.54 530
16.56 556
16.58 549
16.6 542
16.62 509
16.64 548
16.66 582
16.68 532
16.7 544
16.72 565
16.74 542
16.76 561
16.78 551
16.8 608
16.82 562
16.84 577
16.86 627
16.88 618
16.9 523
16.92 569
16.94 594
16.96 618
16.98 579
17 677
17.02 669
17.04 678
17.06 678
17.08 729
17.1 749
17.12 731
17.14 868
17.16 872
17.18 858
17.2 863
17.22 719
17.24 678
17.26 650
17.28 612
17.3 620
17.32 609
17.34 639
17.36 614
17.38 586
17.4 656
17.42 599
17.44 621
17.46 578
17.48 648
17.5 658
17.52 620
17.54 636
17.56 640
17.58 642
17.6 616
17.62 593
17.64 670
17.66 631
17.68 622
17.7 637
17.72 634
17.74 632
17.76 647
17.78 631
17.8 625
17.82 651
17.84 636
17.86 623
17.88 656
17.9 622
17.92 620
17.94 659
17.96 640
17.98 657
18 686
18.02 673
18.04 636
18.06 679
18.08 703
18.1 674
18.12 657
18.14 699
18.16 675
18.18 680
18.2 634
18.22 715
18.24 700
18.26 708
18.28 646
18.3 668
18.32 646
18.34 742
18.36 688
18.38 659
18.4 672
18.42 709
18.44 708
18.46 692
18.48 694
18.5 677
18.52 656
18.54 744
18.56 667
18.58 760
18.6 667
18.62 724
18.64 740
18.66 747
18.68 724
18.7 713
18.72 733
18.74 742
18.76 742
18.78 752
18.8 718
18.82 749
18.84 766
18.86 751
18.88 746
18.9 776
18.92 749
18.94 747
18.96 793
18.98 730
19 739
19.02 778
19.04 734
19.06 757
19.08 744
19.1 767
19.12 747
19.14 756
19.16 788
19.18 727
19.2 779
19.22 751
19.24 751
19.26 748
19.28 754
19.3 858
19.32 800
19.34 820
19.36 789
19.38 835
19.4 769
19.42 812
19.44 806
19.46 784
19.48 837
19.5 856
19.52 887
19.54 848
19.56 881
19.58 887
19.6 869
19.62 892
19.64 889
19.66 851
19.68 847
19.7 839
19.72 837
19.74 835
19.76 822
19.78 867
19.8 813
19.82 820
19.84 858
19.86 884
19.88 876
19.9 853
19.92 892
19.94 819
19.96 883
19.98 884
20 846