File: xrd-UiO-67/pxrddata/36-37.ASC
3 2220
3.02 2101
3.04 2075
3.06 2064
3.08 1976
3.1 1977
3.12 1889
3.14 2003
3.16 1883
3.18 1825
3.2 1839
3.22 1795
3.24 1839
3.26 1714
3.28 1741
3.3 1787
3.32 1713
3.34 1694
3.36 1630
3.38 1637
3.4 1710
3.42 1574
3.44 1582
3.46 1510
3.48 1517
3.5 1564
3.52 1537
3.54 1530
3.56 1477
3.58 1425
3.6 1432
3.62 1377
3.64 1359
3.66 1351
3.68 1399
3.7 1364
3.72 1369
3.74 1322
3.76 1329
3.78 1274
3.8 1337
3.82 1249
3.84 1268
3.86 1264
3.88 1199
3.9 1191
3.92 1216
3.94 1148
3.96 1143
3.98 1135
4 1165
4.02 1213
4.04 1137
4.06 1163
4.08 1086
4.1 1092
4.12 1057
4.14 1087
4.16 1054
4.18 1029
4.2 1064
4.22 1022
4.24 983
4.26 1071
4.28 998
4.3 958
4.32 934
4.34 949
4.36 1000
4.38 913
4.4 902
4.42 847
4.44 863
4.46 906
4.48 907
4.5 895
4.52 893
4.54 856
4.56 869
4.58 864
4.6 854
4.62 901
4.64 863
4.66 844
4.68 848
4.7 859
4.72 809
4.74 867
4.76 815
4.78 789
4.8 825
4.82 823
4.84 819
4.86 869
4.88 867
4.9 809
4.92 792
4.94 861
4.96 859
4.98 801
5 767
5.02 832
5.04 886
5.06 848
5.08 847
5.1 842
5.12 936
5.14 927
5.16 961
5.18 931
5.2 943
5.22 960
5.24 990
5.26 1041
5.28 1069
5.3 1165
5.32 1234
5.34 1256
5.36 1296
5.38 1361
5.4 1510
5.42 1645
5.44 1799
5.46 2112
5.48 2266
5.5 2104
5.52 1662
5.54 1392
5.56 1172
5.58 1202
5.6 1056
5.62 1060
5.64 963
5.66 954
5.68 929
5.7 934
5.72 855
5.74 892
5.76 824
5.78 830
5.8 788
5.82 754
5.84 747
5.86 754
5.88 701
5.9 718
5.92 699
5.94 656
5.96 648
5.98 673
6 655
6.02 616
6.04 629
6.06 610
6.08 610
6.1 638
6.12 623
6.14 578
6.16 579
6.18 594
6.2 560
6.22 568
6.24 545
6.26 592
6.28 610
6.3 565
6.32 591
6.34 575
6.36 569
6.38 567
6.4 523
6.42 544
6.44 576
6.46 580
6.48 569
6.5 561
6.52 578
6.54 597
6.56 540
6.58 529
6.6 561
6.62 557
6.64 525
6.66 543
6.68 536
6.7 534
6.72 576
6.74 514
6.76 561
6.78 537
6.8 527
6.82 539
6.84 515
6.86 528
6.88 524
6.9 499
6.92 487
6.94 495
6.96 478
6.98 486
7 473
7.02 520
7.04 542
7.06 491
7.08 522
7.1 497
7.12 536
7.14 510
7.16 534
7.18 489
7.2 508
7.22 510
7.24 487
7.26 514
7.28 523
7.3 491
7.32 475
7.34 496
7.36 502
7.38 507
7.4 501
7.42 513
7.44 468
7.46 445
7.48 492
7.5 489
7.52 501
7.54 520
7.56 469
7.58 481
7.6 474
7.62 500
7.64 501
7.66 521
7.68 505
7.7 520
7.72 476
7.74 480
7.76 496
7.78 501
7.8 467
7.82 484
7.84 447
7.86 466
7.88 451
7.9 487
7.92 489
7.94 487
7.96 420
7.98 438
8 489
8.02 494
8.04 495
8.06 483
8.08 483
8.1 454
8.12 448
8.14 459
8.16 459
8.18 453
8.2 510
8.22 476
8.24 451
8.26 446
8.28 457
8.3 475
8.32 479
8.34 465
8.36 442
8.38 452
8.4 441
8.42 438
8.44 462
8.46 441
8.48 467
8.5 495
8.52 434
8.54 460
8.56 481
8.58 473
8.6 448
8.62 470
8.64 460
8.66 449
8.68 475
8.7 473
8.72 471
8.74 459
8.76 472
8.78 468
8.8 474
8.82 455
8.84 469
8.86 445
8.88 439
8.9 462
8.92 461
8.94 445
8.96 476
8.98 441
9 434
9.02 501
9.04 527
9.06 507
9.08 490
9.1 509
9.12 522
9.14 495
9.16 493
9.18 495
9.2 542
9.22 531
9.24 567
9.26 600
9.28 613
9.3 631
9.32 705
9.34 792
9.36 860
9.38 911
9.4 936
9.42 914
9.44 763
9.46 657
9.48 580
9.5 524
9.52 546
9.54 512
9.56 489
9.58 493
9.6 478
9.62 492
9.64 478
9.66 496
9.68 496
9.7 470
9.72 516
9.74 438
9.76 509
9.78 489
9.8 434
9.82 467
9.84 458
9.86 490
9.88 468
9.9 475
9.92 470
9.94 430
9.96 481
9.98 481
10 479
10.02 489
10.04 453
10.06 440
10.08 445
10.1 453
10.12 422
10.14 455
10.16 431
10.18 468
10.2 429
10.22 474
10.24 472
10.26 487
10.28 471
10.3 482
10.32 456
10.34 468
10.36 485
10.38 472
10.4 454
10.42 449
10.44 444
10.46 493
10.48 475
10.5 472
10.52 531
10.54 521
10.56 493
10.58 502
10.6 473
10.62 449
10.64 482
10.66 520
10.68 511
10.7 505
10.72 542
10.74 579
10.76 590
10.78 644
10.8 637
10.82 751
10.84 729
10.86 733
10.88 660
10.9 638
10.92 591
10.94 569
10.96 571
10.98 573
11 538
11.02 552
11.04 509
11.06 510
11.08 496
11.1 434
11.12 470
11.14 466
11.16 490
11.18 464
11.2 450
11.22 472
11.24 442
11.26 491
11.28 438
11.3 457
11.32 456
11.34 449
11.36 488
11.38 461
11.4 474
11.42 475
11.44 473
11.46 452
11.48 451
11.5 492
11.52 458
11.54 458
11.56 432
11.58 490
11.6 477
11.62 460
11.64 472
11.66 423
11.68 452
11.7 479
11.72 481
11.74 441
11.76 459
11.78 458
11.8 441
11.82 495
11.84 468
11.86 488
11.88 491
11.9 484
11.92 514
11.94 470
11.96 439
11.98 477
12 497
12.02 513
12.04 468
12.06 445
12.08 503
12.1 477
12.12 476
12.14 498
12.16 454
12.18 477
12.2 484
12.22 500
12.24 471
12.26 492
12.28 477
12.3 476
12.32 488
12.34 509
12.36 525
12.38 551
12.4 508
12.42 497
12.44 519
12.46 478
12.48 512
12.5 451
12.52 496
12.54 462
12.56 512
12.58 471
12.6 532
12.62 487
12.64 483
12.66 486
12.68 480
12.7 497
12.72 478
12.74 458
12.76 475
12.78 507
12.8 505
12.82 489
12.84 481
12.86 500
12.88 513
12.9 486
12.92 488
12.94 466
12.96 506
12.98 463
13 493
13.02 510
13.04 514
13.06 478
13.08 510
13.1 512
13.12 499
13.14 468
13.16 471
13.18 513
13.2 495
13.22 494
13.24 524
13.26 559
13.28 503
13.3 521
13.32 522
13.34 557
13.36 493
13.38 537
13.4 550
13.42 519
13.44 515
13.46 522
13.48 515
13.5 511
13.52 520
13.54 557
13.56 515
13.58 478
13.6 537
13.62 505
13.64 532
13.66 497
13.68 534
13.7 552
13.72 553
13.74 518
13.76 528
13.78 528
13.8 546
13.82 497
13.84 494
13.86 505
13.88 512
13.9 538
13.92 583
13.94 550
13.96 536
13.98 507
14 550
14.02 529
14.04 536
14.06 527
14.08 583
14.1 577
14.12 581
14.14 563
14.16 506
14.18 550
14.2 556
14.22 567
14.24 537
14.26 589
14.28 555
14.3 568
14.32 550
14.34 607
14.36 641
14.38 610
14.4 562
14.42 582
14.44 581
14.46 565
14.48 591
14.5 566
14.52 592
14.54 591
14.56 584
14.58 576
14.6 549
14.62 547
14.64 581
14.66 524
14.68 538
14.7 588
14.72 601
14.74 556
14.76 553
14.78 565
14.8 596
14.82 612
14.84 587
14.86 552
14.88 575
14.9 569
14.92 603
14.94 550
14.96 582
14.98 593
15 598
15.02 610
15.04 584
15.06 570
15.08 575
15.1 586
15.12 594
15.14 591
15.16 611
15.18 618
15.2 630
15.22 566
15.24 596
15.26 620
15.28 638
15.3 586
15.32 605
15.34 613
15.36 635
15.38 601
15.4 609
15.42 610
15.44 644
15.46 640
15.48 584
15.5 589
15.52 626
15.54 642
15.56 603
15.58 645
15.6 614
15.62 674
15.64 674
15.66 630
15.68 592
15.7 609
15.72 674
15.74 698
15.76 646
15.78 614
15.8 649
15.82 672
15.84 655
15.86 645
15.88 671
15.9 618
15.92 667
15.94 632
15.96 657
15.98 636
16 689
16.02 686
16.04 679
16.06 683
16.08 651
16.1 673
16.12 682
16.14 729
16.16 630
16.18 727
16.2 688
16.22 692
16.24 741
16.26 766
16.28 670
16.3 683
16.32 680
16.34 680
16.36 745
16.38 689
16.4 755
16.42 685
16.44 731
16.46 747
16.48 656
16.5 742
16.52 701
16.54 706
16.56 708
16.58 710
16.6 702
16.62 719
16.64 727
16.66 698
16.68 756
16.7 754
16.72 775
16.74 800
16.76 748
16.78 746
16.8 784
16.82 775
16.84 734
16.86 741
16.88 774
16.9 829
16.92 866
16.94 841
16.96 911
16.98 876
17 973
17.02 970
17.04 1014
17.06 1033
17.08 1022
17.1 902
17.12 855
17.14 848
17.16 797
17.18 819
17.2 843
17.22 780
17.24 741
17.26 822
17.28 803
17.3 839
17.32 835
17.34 822
17.36 904
17.38 874
17.4 832
17.42 829
17.44 835
17.46 860
17.48 850
17.5 822
17.52 888
17.54 843
17.56 892
17.58 806
17.6 842
17.62 805
17.64 855
17.66 825
17.68 815
17.7 884
17.72 785
17.74 853
17.76 877
17.78 914
17.8 870
17.82 893
17.84 887
17.86 899
17.88 880
17.9 891
17.92 915
17.94 876
17.96 881
17.98 849
18 917
18.02 905
18.04 915
18.06 942
18.08 945
18.1 940
18.12 911
18.14 960
18.16 992
18.18 951
18.2 934
18.22 944
18.24 927
18.26 881
18.28 932
18.3 944
18.32 944
18.34 933
18.36 980
18.38 977
18.4 923
18.42 972
18.44 994
18.46 992
18.48 974
18.5 947
18.52 1015
18.54 901
18.56 982
18.58 1011
18.6 1053
18.62 964
18.64 977
18.66 968
18.68 992
18.7 982
18.72 999
18.74 993
18.76 1026
18.78 1004
18.8 1023
18.82 1090
18.84 1008
18.86 998
18.88 1047
18.9 1018
18.92 1023
18.94 994
18.96 1076
18.98 1032
19 1005
19.02 1016
19.04 966
19.06 1074
19.08 1063
19.1 1062
19.12 1098
19.14 1065
19.16 1090
19.18 1063
19.2 1075
19.22 1098
19.24 1084
19.26 1087
19.28 1106
19.3 1117
19.32 1150
19.34 1100
19.36 1167
19.38 1141
19.4 1119
19.42 1142
19.44 1122
19.46 1244
19.48 1221
19.5 1198
19.52 1319
19.54 1241
19.56 1202
19.58 1196
19.6 1245
19.62 1193
19.64 1222
19.66 1213
19.68 1169
19.7 1119
19.72 1199
19.74 1195
19.76 1176
19.78 1159
19.8 1189
19.82 1196
19.84 1165
19.86 1217
19.88 1207
19.9 1142
19.92 1136
19.94 1163
19.96 1216
19.98 1157
20 1255