File: xrd-UiO-67/pxrddata/36-4.ASC
3 2274
3.02 2202
3.04 2229
3.06 2022
3.08 1932
3.1 1916
3.12 1758
3.14 1771
3.16 1770
3.18 1675
3.2 1700
3.22 1720
3.24 1715
3.26 1695
3.28 1676
3.3 1630
3.32 1623
3.34 1557
3.36 1556
3.38 1519
3.4 1502
3.42 1461
3.44 1515
3.46 1486
3.48 1426
3.5 1388
3.52 1446
3.54 1420
3.56 1369
3.58 1382
3.6 1453
3.62 1354
3.64 1275
3.66 1344
3.68 1374
3.7 1294
3.72 1303
3.74 1234
3.76 1275
3.78 1244
3.8 1174
3.82 1221
3.84 1272
3.86 1181
3.88 1199
3.9 1148
3.92 1257
3.94 1133
3.96 1134
3.98 1063
4 1159
4.02 1061
4.04 1118
4.06 1139
4.08 1139
4.1 1157
4.12 1092
4.14 1052
4.16 1041
4.18 1087
4.2 1077
4.22 1113
4.24 1042
4.26 1041
4.28 989
4.3 1040
4.32 1063
4.34 1025
4.36 980
4.38 1002
4.4 962
4.42 977
4.44 969
4.46 989
4.48 1016
4.5 973
4.52 960
4.54 976
4.56 987
4.58 956
4.6 935
4.62 927
4.64 958
4.66 866
4.68 885
4.7 940
4.72 891
4.74 885
4.76 880
4.78 862
4.8 917
4.82 907
4.84 819
4.86 867
4.88 891
4.9 862
4.92 774
4.94 831
4.96 858
4.98 816
5 838
5.02 850
5.04 820
5.06 838
5.08 829
5.1 825
5.12 796
5.14 847
5.16 794
5.18 724
5.2 782
5.22 761
5.24 774
5.26 738
5.28 765
5.3 732
5.32 718
5.34 725
5.36 779
5.38 773
5.4 733
5.42 739
5.44 741
5.46 757
5.48 736
5.5 763
5.52 773
5.54 732
5.56 762
5.58 745
5.6 701
5.62 732
5.64 716
5.66 699
5.68 657
5.7 733
5.72 689
5.74 750
5.76 735
5.78 708
5.8 741
5.82 702
5.84 724
5.86 717
5.88 676
5.9 736
5.92 650
5.94 702
5.96 692
5.98 698
6 675
6.02 724
6.04 679
6.06 675
6.08 705
6.1 644
6.12 663
6.14 650
6.16 693
6.18 690
6.2 639
6.22 685
6.24 659
6.26 710
6.28 688
6.3 699
6.32 713
6.34 634
6.36 628
6.38 674
6.4 647
6.42 661
6.44 650
6.46 657
6.48 670
6.5 647
6.52 696
6.54 652
6.56 662
6.58 678
6.6 607
6.62 682
6.64 627
6.66 612
6.68 647
6.7 577
6.72 678
6.74 646
6.76 616
6.78 633
6.8 662
6.82 641
6.84 647
6.86 723
6.88 619
6.9 613
6.92 634
6.94 610
6.96 636
6.98 662
7 618
7.02 642
7.04 611
7.06 604
7.08 605
7.1 630
7.12 601
7.14 650
7.16 587
7.18 605
7.2 606
7.22 653
7.24 632
7.26 618
7.28 610
7.3 609
7.32 612
7.34 624
7.36 627
7.38 632
7.4 639
7.42 592
7.44 612
7.46 640
7.48 594
7.5 648
7.52 635
7.54 613
7.56 580
7.58 595
7.6 600
7.62 607
7.64 592
7.66 596
7.68 601
7.7 634
7.72 632
7.74 607
7.76 580
7.78 554
7.8 621
7.82 617
7.84 579
7.86 604
7.88 641
7.9 599
7.92 554
7.94 569
7.96 610
7.98 604
8 663
8.02 592
8.04 590
8.06 614
8.08 534
8.1 615
8.12 628
8.14 602
8.16 594
8.18 566
8.2 614
8.22 585
8.24 612
8.26 593
8.28 585
8.3 579
8.32 592
8.34 605
8.36 579
8.38 580
8.4 574
8.42 608
8.44 571
8.46 580
8.48 633
8.5 559
8.52 584
8.54 598
8.56 594
8.58 592
8.6 555
8.62 604
8.64 565
8.66 579
8.68 602
8.7 581
8.72 569
8.74 577
8.76 616
8.78 610
8.8 541
8.82 588
8.84 585
8.86 586
8.88 560
8.9 550
8.92 602
8.94 570
8.96 542
8.98 590
9 598
9.02 566
9.04 556
9.06 558
9.08 579
9.1 596
9.12 592
9.14 546
9.16 583
9.18 569
9.2 573
9.22 601
9.24 572
9.26 565
9.28 556
9.3 599
9.32 590
9.34 594
9.36 586
9.38 549
9.4 575
9.42 590
9.44 603
9.46 531
9.48 591
9.5 596
9.52 556
9.54 571
9.56 597
9.58 573
9.6 589
9.62 563
9.64 571
9.66 578
9.68 552
9.7 580
9.72 574
9.74 588
9.76 568
9.78 543
9.8 535
9.82 537
9.84 603
9.86 531
9.88 542
9.9 554
9.92 557
9.94 593
9.96 556
9.98 571
10 537
10.02 526
10.04 558
10.06 547
10.08 587
10.1 582
10.12 564
10.14 567
10.16 587
10.18 563
10.2 528
10.22 549
10.24 558
10.26 576
10.28 566
10.3 596
10.32 563
10.34 579
10.36 581
10.38 543
10.4 566
10.42 589
10.44 537
10.46 539
10.48 552
10.5 551
10.52 598
10.54 547
10.56 543
10.58 585
10.6 552
10.62 560
10.64 548
10.66 595
10.68 520
10.7 545
10.72 534
10.74 584
10.76 568
10.78 524
10.8 538
10.82 593
10.84 559
10.86 532
10.88 546
10.9 607
10.92 570
10.94 609
10.96 620
10.98 571
11 606
11.02 592
11.04 573
11.06 574
11.08 567
11.1 584
11.12 566
11.14 558
11.16 555
11.18 565
11.2 577
11.22 589
11.24 582
11.26 590
11.28 543
11.3 593
11.32 565
11.34 592
11.36 587
11.38 590
11.4 558
11.42 553
11.44 571
11.46 591
11.48 583
11.5 542
11.52 558
11.54 567
11.56 564
11.58 563
11.6 572
11.62 551
11.64 551
11.66 553
11.68 609
11.7 538
11.72 533
11.74 574
11.76 614
11.78 537
11.8 570
11.82 565
11.84 550
11.86 577
11.88 579
11.9 554
11.92 584
11.94 565
11.96 609
11.98 598
12 528
12.02 544
12.04 561
12.06 574
12.08 604
12.1 550
12.12 587
12.14 624
12.16 547
12.18 567
12.2 566
12.22 640
12.24 567
12.26 566
12.28 547
12.3 604
12.32 602
12.34 572
12.36 569
12.38 601
12.4 619
12.42 558
12.44 575
12.46 593
12.48 578
12.5 499
12.52 554
12.54 580
12.56 569
12.58 555
12.6 588
12.62 623
12.64 585
12.66 573
12.68 578
12.7 605
12.72 599
12.74 593
12.76 541
12.78 599
12.8 575
12.82 604
12.84 568
12.86 580
12.88 581
12.9 593
12.92 602
12.94 607
12.96 622
12.98 596
13 612
13.02 539
13.04 637
13.06 565
13.08 593
13.1 588
13.12 611
13.14 577
13.16 578
13.18 591
13.2 548
13.22 603
13.24 663
13.26 619
13.28 605
13.3 628
13.32 619
13.34 640
13.36 605
13.38 586
13.4 652
13.42 575
13.44 641
13.46 581
13.48 614
13.5 586
13.52 598
13.54 625
13.56 627
13.58 650
13.6 585
13.62 582
13.64 646
13.66 634
13.68 605
13.7 641
13.72 622
13.74 620
13.76 577
13.78 603
13.8 607
13.82 618
13.84 658
13.86 649
13.88 606
13.9 646
13.92 665
13.94 584
13.96 658
13.98 651
14 640
14.02 659
14.04 637
14.06 621
14.08 606
14.1 622
14.12 620
14.14 607
14.16 712
14.18 653
14.2 673
14.22 680
14.24 605
14.26 660
14.28 642
14.3 640
14.32 657
14.34 671
14.36 661
14.38 621
14.4 655
14.42 609
14.44 664
14.46 694
14.48 712
14.5 659
14.52 713
14.54 669
14.56 656
14.58 648
14.6 689
14.62 689
14.64 690
14.66 679
14.68 679
14.7 695
14.72 674
14.74 667
14.76 675
14.78 727
14.8 702
14.82 684
14.84 708
14.86 683
14.88 679
14.9 675
14.92 678
14.94 734
14.96 731
14.98 746
15 673
15.02 710
15.04 737
15.06 711
15.08 726
15.1 687
15.12 706
15.14 698
15.16 714
15.18 701
15.2 678
15.22 695
15.24 728
15.26 773
15.28 731
15.3 735
15.32 758
15.34 711
15.36 705
15.38 748
15.4 796
15.42 729
15.44 821
15.46 721
15.48 757
15.5 779
15.52 757
15.54 720
15.56 714
15.58 768
15.6 781
15.62 777
15.64 737
15.66 697
15.68 740
15.7 735
15.72 784
15.74 791
15.76 712
15.78 763
15.8 739
15.82 755
15.84 734
15.86 775
15.88 742
15.9 755
15.92 760
15.94 759
15.96 776
15.98 743
16 743
16.02 822
16.04 803
16.06 791
16.08 779
16.1 816
16.12 798
16.14 812
16.16 800
16.18 748
16.2 823
16.22 787
16.24 796
16.26 813
16.28 801
16.3 809
16.32 817
16.34 803
16.36 776
16.38 797
16.4 815
16.42 783
16.44 812
16.46 850
16.48 890
16.5 815
16.52 861
16.54 849
16.56 831
16.58 872
16.6 906
16.62 888
16.64 879
16.66 892
16.68 918
16.7 859
16.72 873
16.74 909
16.76 888
16.78 879
16.8 916
16.82 947
16.84 970
16.86 950
16.88 1036
16.9 1037
16.92 1116
16.94 1107
16.96 1260
16.98 1306
17 1406
17.02 1489
17.04 1474
17.06 1339
17.08 1211
17.1 1073
17.12 1035
17.14 968
17.16 941
17.18 986
17.2 970
17.22 940
17.24 984
17.26 899
17.28 938
17.3 931
17.32 983
17.34 904
17.36 893
17.38 948
17.4 927
17.42 933
17.44 936
17.46 933
17.48 964
17.5 966
17.52 977
17.54 957
17.56 1022
17.58 938
17.6 983
17.62 958
17.64 998
17.66 998
17.68 993
17.7 1020
17.72 999
17.74 1012
17.76 976
17.78 971
17.8 994
17.82 991
17.84 1012
17.86 995
17.88 984
17.9 1028
17.92 1007
17.94 1032
17.96 984
17.98 1047
18 1054
18.02 1045
18.04 1017
18.06 1069
18.08 1059
18.1 996
18.12 1004
18.14 1024
18.16 1057
18.18 993
18.2 1075
18.22 1031
18.24 1107
18.26 1085
18.28 1035
18.3 1127
18.32 1073
18.34 1102
18.36 1121
18.38 1058
18.4 1078
18.42 1116
18.44 1109
18.46 1107
18.48 1116
18.5 1067
18.52 1134
18.54 1139
18.56 1101
18.58 1110
18.6 1024
18.62 1165
18.64 1213
18.66 1130
18.68 1138
18.7 1097
18.72 1115
18.74 1162
18.76 1150
18.78 1142
18.8 1109
18.82 1201
18.84 1128
18.86 1095
18.88 1136
18.9 1203
18.92 1196
18.94 1184
18.96 1237
18.98 1199
19 1235
19.02 1151
19.04 1224
19.06 1139
19.08 1150
19.1 1171
19.12 1183
19.14 1157
19.16 1160
19.18 1183
19.2 1174
19.22 1212
19.24 1240
19.26 1213
19.28 1228
19.3 1252
19.32 1224
19.34 1269
19.36 1239
19.38 1263
19.4 1253
19.42 1233
19.44 1259
19.46 1275
19.48 1253
19.5 1290
19.52 1252
19.54 1306
19.56 1219
19.58 1204
19.6 1263
19.62 1188
19.64 1324
19.66 1233
19.68 1330
19.7 1239
19.72 1290
19.74 1243
19.76 1196
19.78 1319
19.8 1385
19.82 1377
19.84 1376
19.86 1301
19.88 1286
19.9 1311
19.92 1343
19.94 1365
19.96 1328
19.98 1335
20 1368