File: xrd-UiO-67/pxrddata/36-7.ASC
3 2946
3.02 2673
3.04 2631
3.06 2455
3.08 2510
3.1 2378
3.12 2311
3.14 2294
3.16 2273
3.18 2302
3.2 2161
3.22 2206
3.24 2195
3.26 2191
3.28 2015
3.3 2049
3.32 2003
3.34 2017
3.36 2077
3.38 1966
3.4 1950
3.42 1848
3.44 1859
3.46 1866
3.48 1869
3.5 1825
3.52 1752
3.54 1726
3.56 1766
3.58 1765
3.6 1709
3.62 1683
3.64 1635
3.66 1646
3.68 1670
3.7 1655
3.72 1651
3.74 1633
3.76 1584
3.78 1588
3.8 1583
3.82 1548
3.84 1598
3.86 1553
3.88 1579
3.9 1577
3.92 1486
3.94 1583
3.96 1498
3.98 1440
4 1480
4.02 1441
4.04 1546
4.06 1498
4.08 1450
4.1 1435
4.12 1350
4.14 1364
4.16 1340
4.18 1389
4.2 1273
4.22 1252
4.24 1239
4.26 1265
4.28 1235
4.3 1105
4.32 1225
4.34 1156
4.36 1122
4.38 1103
4.4 1136
4.42 1082
4.44 1092
4.46 1094
4.48 1118
4.5 1064
4.52 1053
4.54 1078
4.56 1020
4.58 1021
4.6 1032
4.62 1056
4.64 1058
4.66 978
4.68 982
4.7 1015
4.72 1024
4.74 966
4.76 969
4.78 995
4.8 983
4.82 966
4.84 950
4.86 942
4.88 942
4.9 966
4.92 946
4.94 937
4.96 938
4.98 958
5 973
5.02 1041
5.04 1027
5.06 1023
5.08 980
5.1 1063
5.12 1004
5.14 1106
5.16 1071
5.18 1092
5.2 1187
5.22 1151
5.24 1194
5.26 1280
5.28 1264
5.3 1350
5.32 1530
5.34 1495
5.36 1666
5.38 1789
5.4 1841
5.42 1767
5.44 1678
5.46 1594
5.48 1468
5.5 1396
5.52 1472
5.54 1526
5.56 1446
5.58 1543
5.6 1583
5.62 1700
5.64 1722
5.66 1862
5.68 1897
5.7 2034
5.72 2159
5.74 2343
5.76 2291
5.78 2025
5.8 1822
5.82 1542
5.84 1276
5.86 1110
5.88 977
5.9 894
5.92 860
5.94 877
5.96 766
5.98 877
6 821
6.02 758
6.04 733
6.06 732
6.08 707
6.1 760
6.12 746
6.14 679
6.16 691
6.18 727
6.2 662
6.22 700
6.24 733
6.26 679
6.28 715
6.3 730
6.32 663
6.34 654
6.36 645
6.38 683
6.4 709
6.42 687
6.44 638
6.46 699
6.48 661
6.5 658
6.52 668
6.54 643
6.56 702
6.58 708
6.6 717
6.62 737
6.64 712
6.66 698
6.68 732
6.7 764
6.72 746
6.74 737
6.76 724
6.78 746
6.8 701
6.82 672
6.84 646
6.86 698
6.88 647
6.9 604
6.92 605
6.94 560
6.96 618
6.98 618
7 613
7.02 575
7.04 615
7.06 595
7.08 577
7.1 634
7.12 616
7.14 567
7.16 597
7.18 573
7.2 613
7.22 551
7.24 553
7.26 598
7.28 533
7.3 607
7.32 591
7.34 571
7.36 606
7.38 599
7.4 559
7.42 583
7.44 545
7.46 643
7.48 553
7.5 591
7.52 563
7.54 568
7.56 559
7.58 586
7.6 526
7.62 545
7.64 584
7.66 569
7.68 540
7.7 531
7.72 593
7.74 553
7.76 557
7.78 612
7.8 602
7.82 558
7.84 542
7.86 557
7.88 575
7.9 604
7.92 597
7.94 534
7.96 572
7.98 589
8 544
8.02 548
8.04 535
8.06 587
8.08 545
8.1 529
8.12 556
8.14 577
8.16 574
8.18 580
8.2 548
8.22 558
8.24 540
8.26 522
8.28 549
8.3 541
8.32 522
8.34 508
8.36 538
8.38 512
8.4 543
8.42 505
8.44 536
8.46 512
8.48 556
8.5 516
8.52 506
8.54 517
8.56 521
8.58 525
8.6 530
8.62 553
8.64 538
8.66 529
8.68 514
8.7 527
8.72 513
8.74 494
8.76 498
8.78 496
8.8 528
8.82 505
8.84 517
8.86 534
8.88 573
8.9 557
8.92 573
8.94 613
8.96 588
8.98 574
9 602
9.02 600
9.04 585
9.06 616
9.08 549
9.1 613
9.12 640
9.14 714
9.16 717
9.18 745
9.2 794
9.22 805
9.24 880
9.26 920
9.28 1073
9.3 1226
9.32 1165
9.34 1061
9.36 881
9.38 786
9.4 696
9.42 692
9.44 606
9.46 580
9.48 569
9.5 583
9.52 542
9.54 548
9.56 523
9.58 546
9.6 502
9.62 541
9.64 501
9.66 526
9.68 557
9.7 554
9.72 533
9.74 560
9.76 541
9.78 513
9.8 519
9.82 512
9.84 532
9.86 509
9.88 557
9.9 550
9.92 571
9.94 539
9.96 552
9.98 536
10 591
10.02 577
10.04 591
10.06 607
10.08 618
10.1 650
10.12 641
10.14 663
10.16 654
10.18 688
10.2 581
10.22 615
10.24 582
10.26 494
10.28 533
10.3 541
10.32 517
10.34 539
10.36 482
10.38 501
10.4 530
10.42 519
10.44 495
10.46 517
10.48 519
10.5 520
10.52 498
10.54 541
10.56 539
10.58 539
10.6 529
10.62 584
10.64 587
10.66 580
10.68 632
10.7 656
10.72 710
10.74 724
10.76 745
10.78 776
10.8 755
10.82 735
10.84 715
10.86 735
10.88 782
10.9 860
10.92 865
10.94 881
10.96 865
10.98 706
11 632
11.02 588
11.04 574
11.06 561
11.08 525
11.1 517
11.12 513
11.14 530
11.16 525
11.18 525
11.2 500
11.22 533
11.24 524
11.26 502
11.28 500
11.3 530
11.32 577
11.34 567
11.36 569
11.38 575
11.4 566
11.42 591
11.44 631
11.46 639
11.48 601
11.5 574
11.52 565
11.54 512
11.56 511
11.58 544
11.6 521
11.62 527
11.64 458
11.66 485
11.68 471
11.7 472
11.72 467
11.74 532
11.76 531
11.78 509
11.8 502
11.82 512
11.84 505
11.86 508
11.88 486
11.9 514
11.92 542
11.94 505
11.96 497
11.98 510
12 504
12.02 502
12.04 528
12.06 538
12.08 522
12.1 557
12.12 519
12.14 510
12.16 541
12.18 565
12.2 574
12.22 545
12.24 517
12.26 525
12.28 546
12.3 521
12.32 514
12.34 538
12.36 552
12.38 480
12.4 496
12.42 473
12.44 463
12.46 451
12.48 483
12.5 504
12.52 495
12.54 510
12.56 491
12.58 503
12.6 493
12.62 510
12.64 503
12.66 495
12.68 487
12.7 492
12.72 506
12.74 521
12.76 504
12.78 502
12.8 500
12.82 495
12.84 485
12.86 487
12.88 492
12.9 495
12.92 551
12.94 509
12.96 453
12.98 504
13 528
13.02 521
13.04 497
13.06 477
13.08 501
13.1 481
13.12 511
13.14 517
13.16 543
13.18 514
13.2 542
13.22 533
13.24 528
13.26 565
13.28 541
13.3 494
13.32 596
13.34 544
13.36 532
13.38 578
13.4 531
13.42 521
13.44 559
13.46 518
13.48 526
13.5 512
13.52 522
13.54 543
13.56 472
13.58 548
13.6 513
13.62 538
13.64 502
13.66 464
13.68 557
13.7 533
13.72 480
13.74 551
13.76 495
13.78 518
13.8 478
13.82 520
13.84 533
13.86 530
13.88 496
13.9 528
13.92 520
13.94 541
13.96 478
13.98 512
14 521
14.02 498
14.04 515
14.06 552
14.08 594
14.1 529
14.12 533
14.14 523
14.16 566
14.18 527
14.2 551
14.22 603
14.24 618
14.26 556
14.28 529
14.3 564
14.32 573
14.34 565
14.36 595
14.38 581
14.4 558
14.42 609
14.44 553
14.46 564
14.48 553
14.5 562
14.52 557
14.54 553
14.56 542
14.58 597
14.6 528
14.62 591
14.64 591
14.66 550
14.68 560
14.7 580
14.72 580
14.74 618
14.76 626
14.78 618
14.8 606
14.82 618
14.84 619
14.86 600
14.88 560
14.9 598
14.92 575
14.94 608
14.96 568
14.98 579
15 568
15.02 586
15.04 562
15.06 600
15.08 578
15.1 555
15.12 586
15.14 577
15.16 560
15.18 600
15.2 595
15.22 620
15.24 618
15.26 597
15.28 595
15.3 584
15.32 590
15.34 617
15.36 604
15.38 556
15.4 594
15.42 588
15.44 586
15.46 646
15.48 608
15.5 588
15.52 610
15.54 585
15.56 562
15.58 644
15.6 568
15.62 602
15.64 595
15.66 614
15.68 599
15.7 567
15.72 613
15.74 563
15.76 587
15.78 611
15.8 612
15.82 623
15.84 560
15.86 583
15.88 642
15.9 671
15.92 616
15.94 623
15.96 615
15.98 611
16 617
16.02 645
16.04 662
16.06 659
16.08 629
16.1 704
16.12 698
16.14 669
16.16 686
16.18 634
16.2 725
16.22 696
16.24 669
16.26 704
16.28 696
16.3 684
16.32 710
16.34 711
16.36 698
16.38 692
16.4 655
16.42 671
16.44 678
16.46 683
16.48 651
16.5 673
16.52 688
16.54 708
16.56 664
16.58 677
16.6 640
16.62 711
16.64 742
16.66 705
16.68 637
16.7 682
16.72 720
16.74 692
16.76 685
16.78 716
16.8 718
16.82 810
16.84 769
16.86 797
16.88 894
16.9 946
16.92 1043
16.94 1292
16.96 1435
16.98 1392
17 1286
17.02 1147
17.04 1069
17.06 914
17.08 825
17.1 819
17.12 757
17.14 746
17.16 740
17.18 729
17.2 784
17.22 837
17.24 747
17.26 765
17.28 765
17.3 747
17.32 758
17.34 763
17.36 800
17.38 764
17.4 742
17.42 725
17.44 792
17.46 813
17.48 799
17.5 786
17.52 765
17.54 826
17.56 792
17.58 762
17.6 869
17.62 738
17.64 767
17.66 857
17.68 842
17.7 798
17.72 743
17.74 777
17.76 789
17.78 817
17.8 812
17.82 831
17.84 829
17.86 819
17.88 840
17.9 845
17.92 804
17.94 818
17.96 817
17.98 780
18 821
18.02 818
18.04 766
18.06 798
18.08 843
18.1 810
18.12 777
18.14 874
18.16 820
18.18 806
18.2 809
18.22 827
18.24 852
18.26 866
18.28 824
18.3 897
18.32 879
18.34 815
18.36 868
18.38 843
18.4 893
18.42 849
18.44 883
18.46 942
18.48 837
18.5 823
18.52 862
18.54 974
18.56 892
18.58 872
18.6 956
18.62 932
18.64 881
18.66 947
18.68 948
18.7 970
18.72 916
18.74 961
18.76 957
18.78 960
18.8 882
18.82 951
18.84 920
18.86 888
18.88 984
18.9 978
18.92 949
18.94 985
18.96 1049
18.98 949
19 964
19.02 1032
19.04 1006
19.06 1053
19.08 1094
19.1 1081
19.12 1075
19.14 1063
19.16 1018
19.18 1035
19.2 1048
19.22 915
19.24 994
19.26 923
19.28 1047
19.3 1015
19.32 1026
19.34 1090
19.36 1116
19.38 1095
19.4 1132
19.42 1115
19.44 1208
19.46 1137
19.48 1166
19.5 1160
19.52 1135
19.54 1159
19.56 1170
19.58 1073
19.6 1041
19.62 1054
19.64 1037
19.66 1005
19.68 999
19.7 1023
19.72 1000
19.74 995
19.76 1054
19.78 1029
19.8 1050
19.82 1056
19.84 1045
19.86 1088
19.88 1097
19.9 1047
19.92 1040
19.94 1023
19.96 1088
19.98 1019
20 1064