File: xrd-UiO-67/pxrddata/36-8.ASC
3 2361
3.02 2164
3.04 2054
3.06 2007
3.08 1888
3.1 1847
3.12 1795
3.14 1816
3.16 1834
3.18 1792
3.2 1749
3.22 1693
3.24 1686
3.26 1657
3.28 1724
3.3 1646
3.32 1744
3.34 1721
3.36 1677
3.38 1722
3.4 1625
3.42 1634
3.44 1605
3.46 1618
3.48 1582
3.5 1562
3.52 1583
3.54 1569
3.56 1529
3.58 1551
3.6 1522
3.62 1615
3.64 1480
3.66 1488
3.68 1467
3.7 1499
3.72 1554
3.74 1496
3.76 1496
3.78 1550
3.8 1515
3.82 1533
3.84 1483
3.86 1509
3.88 1526
3.9 1497
3.92 1446
3.94 1424
3.96 1466
3.98 1449
4 1448
4.02 1423
4.04 1410
4.06 1419
4.08 1495
4.1 1382
4.12 1400
4.14 1380
4.16 1389
4.18 1388
4.2 1352
4.22 1373
4.24 1430
4.26 1329
4.28 1333
4.3 1326
4.32 1390
4.34 1372
4.36 1378
4.38 1357
4.4 1357
4.42 1328
4.44 1392
4.46 1340
4.48 1292
4.5 1308
4.52 1287
4.54 1276
4.56 1286
4.58 1372
4.6 1261
4.62 1273
4.64 1263
4.66 1303
4.68 1280
4.7 1238
4.72 1305
4.74 1225
4.76 1285
4.78 1249
4.8 1303
4.82 1281
4.84 1255
4.86 1226
4.88 1253
4.9 1217
4.92 1210
4.94 1260
4.96 1234
4.98 1271
5 1230
5.02 1213
5.04 1254
5.06 1241
5.08 1238
5.1 1210
5.12 1178
5.14 1252
5.16 1154
5.18 1192
5.2 1320
5.22 1262
5.24 1268
5.26 1283
5.28 1235
5.3 1311
5.32 1326
5.34 1298
5.36 1248
5.38 1325
5.4 1332
5.42 1322
5.44 1373
5.46 1288
5.48 1263
5.5 1273
5.52 1189
5.54 1161
5.56 1135
5.58 1142
5.6 1103
5.62 1082
5.64 1014
5.66 1024
5.68 1049
5.7 975
5.72 949
5.74 950
5.76 963
5.78 939
5.8 921
5.82 910
5.84 945
5.86 941
5.88 894
5.9 911
5.92 882
5.94 894
5.96 935
5.98 895
6 855
6.02 866
6.04 799
6.06 789
6.08 852
6.1 830
6.12 851
6.14 798
6.16 729
6.18 819
6.2 822
6.22 864
6.24 806
6.26 766
6.28 797
6.3 725
6.32 800
6.34 801
6.36 720
6.38 823
6.4 771
6.42 816
6.44 750
6.46 736
6.48 809
6.5 803
6.52 750
6.54 754
6.56 702
6.58 757
6.6 741
6.62 675
6.64 732
6.66 725
6.68 695
6.7 737
6.72 715
6.74 744
6.76 706
6.78 724
6.8 698
6.82 710
6.84 689
6.86 720
6.88 704
6.9 665
6.92 684
6.94 645
6.96 689
6.98 704
7 702
7.02 676
7.04 698
7.06 623
7.08 698
7.1 680
7.12 631
7.14 669
7.16 645
7.18 608
7.2 662
7.22 666
7.24 615
7.26 640
7.28 639
7.3 661
7.32 637
7.34 644
7.36 660
7.38 675
7.4 660
7.42 595
7.44 650
7.46 639
7.48 618
7.5 650
7.52 649
7.54 665
7.56 653
7.58 623
7.6 658
7.62 621
7.64 595
7.66 604
7.68 633
7.7 643
7.72 638
7.74 603
7.76 600
7.78 623
7.8 651
7.82 594
7.84 579
7.86 624
7.88 602
7.9 610
7.92 645
7.94 569
7.96 593
7.98 612
8 655
8.02 616
8.04 602
8.06 563
8.08 623
8.1 607
8.12 587
8.14 623
8.16 611
8.18 586
8.2 577
8.22 619
8.24 559
8.26 602
8.28 634
8.3 618
8.32 559
8.34 590
8.36 609
8.38 598
8.4 571
8.42 573
8.44 576
8.46 599
8.48 584
8.5 611
8.52 567
8.54 588
8.56 587
8.58 566
8.6 582
8.62 588
8.64 610
8.66 543
8.68 594
8.7 566
8.72 580
8.74 519
8.76 651
8.78 600
8.8 601
8.82 567
8.84 580
8.86 575
8.88 613
8.9 582
8.92 575
8.94 577
8.96 540
8.98 574
9 583
9.02 539
9.04 616
9.06 579
9.08 548
9.1 546
9.12 586
9.14 582
9.16 616
9.18 625
9.2 619
9.22 566
9.24 561
9.26 592
9.28 602
9.3 626
9.32 605
9.34 655
9.36 626
9.38 652
9.4 612
9.42 613
9.44 614
9.46 575
9.48 580
9.5 581
9.52 590
9.54 570
9.56 563
9.58 591
9.6 606
9.62 560
9.64 565
9.66 536
9.68 541
9.7 566
9.72 576
9.74 514
9.76 539
9.78 577
9.8 606
9.82 547
9.84 559
9.86 552
9.88 541
9.9 548
9.92 574
9.94 545
9.96 529
9.98 526
10 531
10.02 542
10.04 552
10.06 538
10.08 525
10.1 543
10.12 510
10.14 520
10.16 551
10.18 507
10.2 487
10.22 509
10.24 556
10.26 546
10.28 521
10.3 518
10.32 534
10.34 503
10.36 498
10.38 538
10.4 527
10.42 531
10.44 511
10.46 542
10.48 526
10.5 508
10.52 492
10.54 558
10.56 533
10.58 517
10.6 548
10.62 516
10.64 534
10.66 496
10.68 525
10.7 520
10.72 546
10.74 504
10.76 530
10.78 556
10.8 530
10.82 551
10.84 526
10.86 561
10.88 523
10.9 543
10.92 569
10.94 536
10.96 536
10.98 527
11 530
11.02 507
11.04 526
11.06 488
11.08 529
11.1 506
11.12 548
11.14 509
11.16 503
11.18 524
11.2 478
11.22 511
11.24 498
11.26 525
11.28 471
11.3 518
11.32 526
11.34 552
11.36 502
11.38 532
11.4 500
11.42 485
11.44 490
11.46 463
11.48 505
11.5 491
11.52 498
11.54 471
11.56 500
11.58 492
11.6 506
11.62 505
11.64 536
11.66 508
11.68 511
11.7 519
11.72 495
11.74 460
11.76 496
11.78 550
11.8 515
11.82 502
11.84 479
11.86 508
11.88 481
11.9 505
11.92 485
11.94 483
11.96 508
11.98 513
12 506
12.02 491
12.04 519
12.06 471
12.08 478
12.1 501
12.12 519
12.14 507
12.16 485
12.18 485
12.2 485
12.22 489
12.24 493
12.26 510
12.28 519
12.3 486
12.32 529
12.34 492
12.36 504
12.38 499
12.4 451
12.42 479
12.44 503
12.46 495
12.48 532
12.5 527
12.52 528
12.54 499
12.56 555
12.58 516
12.6 504
12.62 520
12.64 530
12.66 493
12.68 479
12.7 538
12.72 525
12.74 497
12.76 485
12.78 500
12.8 512
12.82 536
12.84 499
12.86 491
12.88 505
12.9 496
12.92 520
12.94 514
12.96 527
12.98 521
13 517
13.02 520
13.04 537
13.06 530
13.08 491
13.1 521
13.12 522
13.14 526
13.16 530
13.18 570
13.2 528
13.22 555
13.24 532
13.26 494
13.28 535
13.3 548
13.32 501
13.34 515
13.36 495
13.38 513
13.4 527
13.42 532
13.44 490
13.46 489
13.48 549
13.5 494
13.52 528
13.54 528
13.56 508
13.58 541
13.6 508
13.62 509
13.64 556
13.66 489
13.68 506
13.7 497
13.72 549
13.74 487
13.76 570
13.78 521
13.8 561
13.82 535
13.84 544
13.86 538
13.88 534
13.9 548
13.92 502
13.94 571
13.96 551
13.98 544
14 523
14.02 568
14.04 547
14.06 566
14.08 560
14.1 579
14.12 538
14.14 512
14.16 523
14.18 553
14.2 527
14.22 552
14.24 530
14.26 524
14.28 530
14.3 513
14.32 568
14.34 529
14.36 544
14.38 556
14.4 588
14.42 549
14.44 563
14.46 535
14.48 542
14.5 548
14.52 568
14.54 541
14.56 507
14.58 552
14.6 508
14.62 543
14.64 589
14.66 540
14.68 554
14.7 573
14.72 533
14.74 550
14.76 562
14.78 634
14.8 553
14.82 537
14.84 559
14.86 586
14.88 548
14.9 564
14.92 581
14.94 590
14.96 614
14.98 605
15 571
15.02 548
15.04 568
15.06 572
15.08 569
15.1 596
15.12 533
15.14 564
15.16 538
15.18 568
15.2 618
15.22 569
15.24 566
15.26 563
15.28 594
15.3 617
15.32 632
15.34 582
15.36 569
15.38 606
15.4 642
15.42 598
15.44 593
15.46 563
15.48 552
15.5 587
15.52 578
15.54 617
15.56 589
15.58 595
15.6 572
15.62 639
15.64 601
15.66 610
15.68 606
15.7 557
15.72 553
15.74 566
15.76 622
15.78 576
15.8 590
15.82 626
15.84 634
15.86 636
15.88 580
15.9 623
15.92 662
15.94 601
15.96 632
15.98 619
16 590
16.02 604
16.04 631
16.06 621
16.08 623
16.1 630
16.12 614
16.14 664
16.16 670
16.18 657
16.2 669
16.22 638
16.24 621
16.26 657
16.28 620
16.3 612
16.32 634
16.34 665
16.36 638
16.38 686
16.4 653
16.42 617
16.44 640
16.46 617
16.48 661
16.5 674
16.52 621
16.54 687
16.56 645
16.58 645
16.6 696
16.62 647
16.64 672
16.66 689
16.68 678
16.7 688
16.72 702
16.74 706
16.76 711
16.78 726
16.8 759
16.82 805
16.84 794
16.86 857
16.88 853
16.9 955
16.92 988
16.94 1207
16.96 1299
16.98 1611
17 2124
17.02 2674
17.04 2492
17.06 2047
17.08 1616
17.1 1199
17.12 979
17.14 855
17.16 765
17.18 758
17.2 761
17.22 729
17.24 756
17.26 685
17.28 753
17.3 734
17.32 796
17.34 740
17.36 755
17.38 725
17.4 727
17.42 761
17.44 709
17.46 740
17.48 716
17.5 748
17.52 742
17.54 699
17.56 725
17.58 764
17.6 784
17.62 767
17.64 736
17.66 772
17.68 747
17.7 701
17.72 767
17.74 747
17.76 766
17.78 754
17.8 772
17.82 762
17.84 721
17.86 749
17.88 796
17.9 787
17.92 759
17.94 840
17.96 740
17.98 745
18 747
18.02 785
18.04 765
18.06 775
18.08 795
18.1 740
18.12 808
18.14 805
18.16 757
18.18 771
18.2 797
18.22 833
18.24 799
18.26 812
18.28 802
18.3 774
18.32 744
18.34 791
18.36 813
18.38 810
18.4 823
18.42 797
18.44 776
18.46 758
18.48 798
18.5 813
18.52 825
18.54 833
18.56 886
18.58 856
18.6 868
18.62 885
18.64 786
18.66 907
18.68 775
18.7 837
18.72 829
18.74 827
18.76 815
18.78 874
18.8 824
18.82 873
18.84 837
18.86 843
18.88 911
18.9 861
18.92 877
18.94 878
18.96 847
18.98 867
19 842
19.02 853
19.04 827
19.06 890
19.08 901
19.1 884
19.12 867
19.14 858
19.16 895
19.18 866
19.2 889
19.22 923
19.24 909
19.26 872
19.28 883
19.3 907
19.32 865
19.34 882
19.36 864
19.38 855
19.4 895
19.42 945
19.44 879
19.46 920
19.48 840
19.5 891
19.52 859
19.54 933
19.56 908
19.58 902
19.6 909
19.62 937
19.64 918
19.66 839
19.68 915
19.7 893
19.72 930
19.74 958
19.76 954
19.78 895
19.8 959
19.82 951
19.84 954
19.86 894
19.88 943
19.9 920
19.92 987
19.94 960
19.96 1020
19.98 945
20 1005