File: xrd-UiO-67/pxrddata/36-9.ASC
3 2913
3.02 2611
3.04 2550
3.06 2509
3.08 2363
3.1 2375
3.12 2318
3.14 2180
3.16 2215
3.18 2204
3.2 2174
3.22 2137
3.24 2185
3.26 2073
3.28 2121
3.3 2160
3.32 2018
3.34 2018
3.36 1969
3.38 2065
3.4 2011
3.42 1966
3.44 1935
3.46 1925
3.48 1939
3.5 1884
3.52 1821
3.54 1791
3.56 1840
3.58 1809
3.6 1731
3.62 1753
3.64 1765
3.66 1758
3.68 1682
3.7 1629
3.72 1699
3.74 1620
3.76 1644
3.78 1570
3.8 1676
3.82 1568
3.84 1581
3.86 1596
3.88 1495
3.9 1453
3.92 1445
3.94 1461
3.96 1440
3.98 1450
4 1448
4.02 1405
4.04 1419
4.06 1365
4.08 1355
4.1 1313
4.12 1293
4.14 1271
4.16 1265
4.18 1289
4.2 1292
4.22 1226
4.24 1223
4.26 1177
4.28 1165
4.3 1196
4.32 1096
4.34 1136
4.36 1141
4.38 1148
4.4 1112
4.42 1061
4.44 1083
4.46 1073
4.48 1062
4.5 1037
4.52 1017
4.54 1072
4.56 1011
4.58 954
4.6 1013
4.62 980
4.64 956
4.66 951
4.68 910
4.7 954
4.72 908
4.74 897
4.76 831
4.78 870
4.8 918
4.82 876
4.84 862
4.86 837
4.88 820
4.9 861
4.92 838
4.94 859
4.96 799
4.98 796
5 816
5.02 774
5.04 774
5.06 754
5.08 780
5.1 744
5.12 733
5.14 727
5.16 756
5.18 781
5.2 733
5.22 699
5.24 741
5.26 724
5.28 710
5.3 711
5.32 753
5.34 731
5.36 754
5.38 694
5.4 695
5.42 686
5.44 668
5.46 704
5.48 677
5.5 652
5.52 650
5.54 668
5.56 683
5.58 679
5.6 663
5.62 673
5.64 630
5.66 693
5.68 678
5.7 656
5.72 669
5.74 657
5.76 656
5.78 637
5.8 624
5.82 618
5.84 616
5.86 619
5.88 622
5.9 683
5.92 636
5.94 616
5.96 645
5.98 614
6 584
6.02 609
6.04 605
6.06 572
6.08 642
6.1 640
6.12 598
6.14 613
6.16 594
6.18 610
6.2 624
6.22 601
6.24 603
6.26 611
6.28 591
6.3 647
6.32 614
6.34 584
6.36 606
6.38 611
6.4 578
6.42 601
6.44 583
6.46 612
6.48 680
6.5 620
6.52 636
6.54 564
6.56 552
6.58 634
6.6 603
6.62 583
6.64 639
6.66 606
6.68 571
6.7 594
6.72 569
6.74 523
6.76 574
6.78 597
6.8 550
6.82 579
6.84 589
6.86 579
6.88 582
6.9 573
6.92 604
6.94 568
6.96 571
6.98 560
7 595
7.02 552
7.04 523
7.06 571
7.08 601
7.1 575
7.12 584
7.14 560
7.16 546
7.18 537
7.2 584
7.22 568
7.24 576
7.26 551
7.28 584
7.3 549
7.32 581
7.34 577
7.36 564
7.38 491
7.4 590
7.42 577
7.44 551
7.46 580
7.48 559
7.5 542
7.52 523
7.54 541
7.56 557
7.58 585
7.6 559
7.62 565
7.64 531
7.66 599
7.68 571
7.7 577
7.72 564
7.74 555
7.76 530
7.78 534
7.8 534
7.82 507
7.84 506
7.86 559
7.88 562
7.9 594
7.92 488
7.94 503
7.96 555
7.98 509
8 564
8.02 512
8.04 471
8.06 537
8.08 556
8.1 542
8.12 545
8.14 497
8.16 533
8.18 561
8.2 544
8.22 518
8.24 495
8.26 519
8.28 521
8.3 523
8.32 535
8.34 527
8.36 508
8.38 497
8.4 507
8.42 552
8.44 528
8.46 506
8.48 504
8.5 525
8.52 537
8.54 559
8.56 519
8.58 524
8.6 555
8.62 556
8.64 606
8.66 596
8.68 554
8.7 585
8.72 631
8.74 670
8.76 717
8.78 693
8.8 676
8.82 741
8.84 734
8.86 790
8.88 870
8.9 1006
8.92 1103
8.94 1318
8.96 1552
8.98 1570
9 1412
9.02 1190
9.04 1148
9.06 1047
9.08 931
9.1 885
9.12 804
9.14 682
9.16 624
9.18 554
9.2 483
9.22 445
9.24 499
9.26 475
9.28 463
9.3 495
9.32 490
9.34 517
9.36 492
9.38 483
9.4 488
9.42 492
9.44 469
9.46 479
9.48 474
9.5 506
9.52 517
9.54 494
9.56 473
9.58 507
9.6 503
9.62 485
9.64 509
9.66 491
9.68 475
9.7 495
9.72 518
9.74 504
9.76 523
9.78 572
9.8 513
9.82 540
9.84 570
9.86 603
9.88 600
9.9 683
9.92 651
9.94 635
9.96 606
9.98 652
10 585
10.02 559
10.04 540
10.06 577
10.08 501
10.1 498
10.12 488
10.14 488
10.16 478
10.18 464
10.2 460
10.22 446
10.24 459
10.26 475
10.28 455
10.3 430
10.32 476
10.34 454
10.36 478
10.38 440
10.4 461
10.42 437
10.44 463
10.46 463
10.48 436
10.5 436
10.52 465
10.54 497
10.56 463
10.58 464
10.6 429
10.62 429
10.64 433
10.66 449
10.68 456
10.7 444
10.72 461
10.74 452
10.76 444
10.78 441
10.8 476
10.82 435
10.84 458
10.86 474
10.88 434
10.9 443
10.92 463
10.94 463
10.96 489
10.98 414
11 434
11.02 453
11.04 444
11.06 431
11.08 460
11.1 441
11.12 423
11.14 434
11.16 422
11.18 456
11.2 445
11.22 470
11.24 433
11.26 480
11.28 448
11.3 432
11.32 434
11.34 454
11.36 435
11.38 462
11.4 480
11.42 425
11.44 455
11.46 458
11.48 464
11.5 414
11.52 473
11.54 461
11.56 438
11.58 472
11.6 444
11.62 396
11.64 429
11.66 442
11.68 435
11.7 429
11.72 459
11.74 455
11.76 428
11.78 464
11.8 423
11.82 444
11.84 440
11.86 483
11.88 429
11.9 420
11.92 441
11.94 451
11.96 431
11.98 442
12 453
12.02 408
12.04 445
12.06 434
12.08 431
12.1 417
12.12 459
12.14 428
12.16 465
12.18 425
12.2 439
12.22 447
12.24 445
12.26 448
12.28 457
12.3 470
12.32 485
12.34 443
12.36 435
12.38 437
12.4 489
12.42 450
12.44 443
12.46 481
12.48 467
12.5 475
12.52 480
12.54 472
12.56 465
12.58 497
12.6 550
12.62 468
12.64 497
12.66 538
12.68 562
12.7 579
12.72 532
12.74 514
12.76 543
12.78 510
12.8 447
12.82 486
12.84 472
12.86 487
12.88 500
12.9 471
12.92 459
12.94 443
12.96 430
12.98 427
13 484
13.02 446
13.04 475
13.06 455
13.08 469
13.1 482
13.12 472
13.14 469
13.16 509
13.18 491
13.2 452
13.22 466
13.24 502
13.26 509
13.28 555
13.3 529
13.32 524
13.34 527
13.36 601
13.38 540
13.4 588
13.42 545
13.44 537
13.46 549
13.48 497
13.5 528
13.52 492
13.54 472
13.56 459
13.58 472
13.6 444
13.62 478
13.64 472
13.66 448
13.68 510
13.7 460
13.72 473
13.74 464
13.76 447
13.78 491
13.8 451
13.82 466
13.84 458
13.86 440
13.88 452
13.9 488
13.92 471
13.94 465
13.96 468
13.98 488
14 493
14.02 428
14.04 476
14.06 438
14.08 437
14.1 472
14.12 485
14.14 508
14.16 479
14.18 514
14.2 500
14.22 504
14.24 502
14.26 505
14.28 458
14.3 475
14.32 455
14.34 472
14.36 495
14.38 501
14.4 458
14.42 498
14.44 474
14.46 458
14.48 474
14.5 477
14.52 467
14.54 486
14.56 485
14.58 471
14.6 472
14.62 472
14.64 454
14.66 495
14.68 518
14.7 458
14.72 467
14.74 529
14.76 506
14.78 487
14.8 457
14.82 472
14.84 515
14.86 522
14.88 514
14.9 489
14.92 492
14.94 521
14.96 499
14.98 527
15 534
15.02 498
15.04 507
15.06 512
15.08 467
15.1 520
15.12 472
15.14 525
15.16 541
15.18 491
15.2 533
15.22 492
15.24 542
15.26 527
15.28 531
15.3 523
15.32 509
15.34 529
15.36 547
15.38 496
15.4 505
15.42 514
15.44 509
15.46 571
15.48 533
15.5 556
15.52 566
15.54 518
15.56 506
15.58 505
15.6 521
15.62 535
15.64 544
15.66 511
15.68 537
15.7 483
15.72 498
15.74 546
15.76 533
15.78 541
15.8 536
15.82 513
15.84 512
15.86 532
15.88 540
15.9 516
15.92 504
15.94 538
15.96 575
15.98 546
16 537
16.02 552
16.04 523
16.06 548
16.08 543
16.1 508
16.12 530
16.14 543
16.16 514
16.18 519
16.2 542
16.22 573
16.24 565
16.26 523
16.28 544
16.3 537
16.32 595
16.34 591
16.36 557
16.38 574
16.4 584
16.42 582
16.44 591
16.46 617
16.48 579
16.5 587
16.52 576
16.54 625
16.56 631
16.58 625
16.6 641
16.62 593
16.64 629
16.66 636
16.68 633
16.7 664
16.72 644
16.74 741
16.76 773
16.78 747
16.8 881
16.82 841
16.84 955
16.86 1040
16.88 1189
16.9 1371
16.92 1487
16.94 1713
16.96 1694
16.98 1689
17 1519
17.02 1331
17.04 1074
17.06 1013
17.08 863
17.1 814
17.12 778
17.14 753
17.16 691
17.18 664
17.2 681
17.22 655
17.24 605
17.26 689
17.28 651
17.3 676
17.32 664
17.34 645
17.36 668
17.38 636
17.4 622
17.42 640
17.44 680
17.46 647
17.48 608
17.5 645
17.52 670
17.54 644
17.56 652
17.58 650
17.6 632
17.62 674
17.64 649
17.66 657
17.68 672
17.7 686
17.72 637
17.74 671
17.76 673
17.78 688
17.8 659
17.82 702
17.84 689
17.86 719
17.88 694
17.9 702
17.92 744
17.94 719
17.96 677
17.98 725
18 749
18.02 763
18.04 701
18.06 760
18.08 726
18.1 707
18.12 731
18.14 728
18.16 697
18.18 693
18.2 672
18.22 703
18.24 741
18.26 742
18.28 745
18.3 729
18.32 697
18.34 725
18.36 723
18.38 757
18.4 706
18.42 706
18.44 725
18.46 748
18.48 772
18.5 762
18.52 838
18.54 746
18.56 764
18.58 759
18.6 796
18.62 775
18.64 802
18.66 786
18.68 727
18.7 783
18.72 759
18.74 777
18.76 742
18.78 733
18.8 783
18.82 776
18.84 742
18.86 802
18.88 771
18.9 807
18.92 804
18.94 786
18.96 762
18.98 771
19 757
19.02 749
19.04 774
19.06 792
19.08 794
19.1 798
19.12 771
19.14 758
19.16 805
19.18 735
19.2 777
19.22 769
19.24 824
19.26 779
19.28 751
19.3 775
19.32 720
19.34 774
19.36 803
19.38 738
19.4 789
19.42 824
19.44 791
19.46 764
19.48 825
19.5 806
19.52 847
19.54 803
19.56 807
19.58 804
19.6 798
19.62 799
19.64 854
19.66 896
19.68 827
19.7 812
19.72 836
19.74 838
19.76 809
19.78 846
19.8 875
19.82 912
19.84 868
19.86 890
19.88 913
19.9 944
19.92 904
19.94 868
19.96 917
19.98 865
20 885