File: xrd-UiO-67/pxrddata/37-19.ASC
3 3264
3.02 3041
3.04 2946
3.06 2772
3.08 2808
3.1 2704
3.12 2567
3.14 2474
3.16 2426
3.18 2439
3.2 2430
3.22 2322
3.24 2281
3.26 2283
3.28 2201
3.3 2266
3.32 2199
3.34 2096
3.36 2158
3.38 2185
3.4 2009
3.42 1998
3.44 1950
3.46 1938
3.48 1968
3.5 1863
3.52 1902
3.54 1914
3.56 1840
3.58 1847
3.6 1777
3.62 1810
3.64 1740
3.66 1699
3.68 1651
3.7 1657
3.72 1677
3.74 1692
3.76 1521
3.78 1667
3.8 1515
3.82 1555
3.84 1598
3.86 1553
3.88 1542
3.9 1547
3.92 1518
3.94 1475
3.96 1483
3.98 1447
4 1408
4.02 1357
4.04 1391
4.06 1404
4.08 1328
4.1 1274
4.12 1299
4.14 1259
4.16 1271
4.18 1246
4.2 1234
4.22 1222
4.24 1277
4.26 1250
4.28 1175
4.3 1212
4.32 1160
4.34 1193
4.36 1136
4.38 1045
4.4 1110
4.42 1080
4.44 1101
4.46 1015
4.48 1017
4.5 1028
4.52 1047
4.54 1015
4.56 980
4.58 1013
4.6 1022
4.62 985
4.64 1039
4.66 1005
4.68 979
4.7 960
4.72 990
4.74 991
4.76 986
4.78 923
4.8 882
4.82 905
4.84 948
4.86 943
4.88 946
4.9 891
4.92 923
4.94 860
4.96 969
4.98 889
5 910
5.02 858
5.04 860
5.06 820
5.08 863
5.1 863
5.12 832
5.14 794
5.16 809
5.18 792
5.2 797
5.22 845
5.24 854
5.26 796
5.28 845
5.3 782
5.32 792
5.34 817
5.36 783
5.38 758
5.4 767
5.42 763
5.44 788
5.46 817
5.48 794
5.5 765
5.52 756
5.54 740
5.56 754
5.58 740
5.6 751
5.62 797
5.64 712
5.66 758
5.68 765
5.7 740
5.72 744
5.74 747
5.76 722
5.78 727
5.8 688
5.82 767
5.84 744
5.86 717
5.88 696
5.9 794
5.92 704
5.94 774
5.96 740
5.98 695
6 700
6.02 716
6.04 715
6.06 760
6.08 719
6.1 713
6.12 736
6.14 672
6.16 722
6.18 685
6.2 681
6.22 735
6.24 692
6.26 688
6.28 728
6.3 676
6.32 717
6.34 717
6.36 670
6.38 714
6.4 703
6.42 756
6.44 738
6.46 727
6.48 684
6.5 749
6.52 669
6.54 712
6.56 697
6.58 701
6.6 664
6.62 695
6.64 715
6.66 680
6.68 706
6.7 671
6.72 717
6.74 686
6.76 676
6.78 684
6.8 687
6.82 673
6.84 707
6.86 684
6.88 648
6.9 716
6.92 682
6.94 664
6.96 664
6.98 647
7 643
7.02 657
7.04 692
7.06 628
7.08 661
7.1 696
7.12 629
7.14 666
7.16 615
7.18 660
7.2 629
7.22 621
7.24 653
7.26 663
7.28 674
7.3 682
7.32 698
7.34 660
7.36 697
7.38 671
7.4 657
7.42 677
7.44 648
7.46 616
7.48 690
7.5 663
7.52 688
7.54 669
7.56 692
7.58 623
7.6 650
7.62 667
7.64 656
7.66 694
7.68 663
7.7 654
7.72 660
7.74 710
7.76 693
7.78 697
7.8 650
7.82 717
7.84 667
7.86 708
7.88 721
7.9 713
7.92 743
7.94 742
7.96 731
7.98 718
8 698
8.02 708
8.04 674
8.06 689
8.08 647
8.1 672
8.12 677
8.14 681
8.16 685
8.18 657
8.2 719
8.22 685
8.24 687
8.26 684
8.28 709
8.3 696
8.32 722
8.34 684
8.36 717
8.38 727
8.4 716
8.42 746
8.44 681
8.46 676
8.48 691
8.5 752
8.52 732
8.54 703
8.56 763
8.58 765
8.6 755
8.62 758
8.64 773
8.66 810
8.68 805
8.7 875
8.72 898
8.74 905
8.76 995
8.78 1061
8.8 1074
8.82 1185
8.84 1223
8.86 1337
8.88 1467
8.9 1514
8.92 1731
8.94 1913
8.96 2296
8.98 2786
9 3589
9.02 4300
9.04 4575
9.06 4192
9.08 2962
9.1 1692
9.12 993
9.14 805
9.16 774
9.18 756
9.2 742
9.22 644
9.24 706
9.26 697
9.28 671
9.3 652
9.32 638
9.34 668
9.36 630
9.38 679
9.4 691
9.42 674
9.44 666
9.46 655
9.48 650
9.5 679
9.52 719
9.54 709
9.56 727
9.58 737
9.6 698
9.62 716
9.64 720
9.66 802
9.68 810
9.7 781
9.72 839
9.74 824
9.76 919
9.78 982
9.8 997
9.82 1085
9.84 1192
9.86 1274
9.88 1369
9.9 1501
9.92 1756
9.94 2074
9.96 2510
9.98 2909
10 2732
10.02 2063
10.04 1341
10.06 912
10.08 793
10.1 706
10.12 722
10.14 696
10.16 648
10.18 654
10.2 655
10.22 593
10.24 667
10.26 636
10.28 654
10.3 605
10.32 626
10.34 616
10.36 647
10.38 637
10.4 666
10.42 666
10.44 646
10.46 677
10.48 628
10.5 619
10.52 651
10.54 653
10.56 681
10.58 613
10.6 671
10.62 620
10.64 621
10.66 681
10.68 610
10.7 612
10.72 582
10.74 651
10.76 604
10.78 630
10.8 613
10.82 575
10.84 624
10.86 601
10.88 585
10.9 589
10.92 612
10.94 602
10.96 614
10.98 622
11 634
11.02 599
11.04 657
11.06 569
11.08 595
11.1 612
11.12 598
11.14 573
11.16 580
11.18 643
11.2 607
11.22 612
11.24 638
11.26 621
11.28 554
11.3 596
11.32 617
11.34 649
11.36 638
11.38 598
11.4 620
11.42 633
11.44 660
11.46 625
11.48 613
11.5 598
11.52 617
11.54 597
11.56 611
11.58 613
11.6 607
11.62 591
11.64 611
11.66 636
11.68 627
11.7 568
11.72 580
11.74 575
11.76 604
11.78 598
11.8 656
11.82 624
11.84 638
11.86 581
11.88 623
11.9 644
11.92 624
11.94 619
11.96 618
11.98 619
12 593
12.02 590
12.04 602
12.06 612
12.08 621
12.1 657
12.12 679
12.14 666
12.16 649
12.18 622
12.2 622
12.22 625
12.24 616
12.26 634
12.28 656
12.3 613
12.32 617
12.34 653
12.36 633
12.38 638
12.4 676
12.42 702
12.44 631
12.46 684
12.48 689
12.5 655
12.52 709
12.54 683
12.56 721
12.58 744
12.6 721
12.62 790
12.64 800
12.66 786
12.68 883
12.7 896
12.72 997
12.74 1007
12.76 1083
12.78 1045
12.8 916
12.82 827
12.84 766
12.86 680
12.88 669
12.9 639
12.92 668
12.94 674
12.96 651
12.98 664
13 648
13.02 671
13.04 677
13.06 695
13.08 667
13.1 669
13.12 747
13.14 754
13.16 720
13.18 713
13.2 728
13.22 771
13.24 786
13.26 814
13.28 863
13.3 853
13.32 911
13.34 998
13.36 1067
13.38 1157
13.4 1376
13.42 1624
13.44 1652
13.46 1600
13.48 1408
13.5 1129
13.52 855
13.54 788
13.56 770
13.58 736
13.6 730
13.62 688
13.64 707
13.66 738
13.68 678
13.7 705
13.72 698
13.74 638
13.76 696
13.78 670
13.8 705
13.82 682
13.84 718
13.86 623
13.88 717
13.9 767
13.92 650
13.94 646
13.96 671
13.98 681
14 710
14.02 720
14.04 739
14.06 697
14.08 693
14.1 691
14.12 681
14.14 669
14.16 685
14.18 717
14.2 693
14.22 713
14.24 727
14.26 682
14.28 698
14.3 719
14.32 702
14.34 716
14.36 728
14.38 689
14.4 681
14.42 679
14.44 715
14.46 783
14.48 740
14.5 702
14.52 663
14.54 690
14.56 735
14.58 712
14.6 777
14.62 720
14.64 727
14.66 764
14.68 703
14.7 738
14.72 772
14.74 735
14.76 700
14.78 759
14.8 742
14.82 744
14.84 732
14.86 696
14.88 779
14.9 800
14.92 737
14.94 749
14.96 700
14.98 708
15 753
15.02 730
15.04 763
15.06 769
15.08 713
15.1 798
15.12 746
15.14 757
15.16 743
15.18 761
15.2 763
15.22 770
15.24 783
15.26 748
15.28 766
15.3 769
15.32 804
15.34 817
15.36 763
15.38 794
15.4 784
15.42 844
15.44 805
15.46 773
15.48 752
15.5 817
15.52 813
15.54 738
15.56 768
15.58 810
15.6 833
15.62 794
15.64 795
15.66 775
15.68 822
15.7 780
15.72 821
15.74 899
15.76 826
15.78 824
15.8 804
15.82 828
15.84 807
15.86 849
15.88 859
15.9 850
15.92 845
15.94 822
15.96 788
15.98 836
16 849
16.02 880
16.04 821
16.06 789
16.08 826
16.1 890
16.12 813
16.14 791
16.16 808
16.18 916
16.2 865
16.22 884
16.24 855
16.26 809
16.28 844
16.3 835
16.32 872
16.34 858
16.36 886
16.38 887
16.4 901
16.42 894
16.44 931
16.46 901
16.48 908
16.5 863
16.52 920
16.54 898
16.56 824
16.58 974
16.6 869
16.62 937
16.64 892
16.66 935
16.68 929
16.7 907
16.72 1025
16.74 988
16.76 979
16.78 994
16.8 1025
16.82 1027
16.84 1070
16.86 1080
16.88 1183
16.9 1189
16.92 1228
16.94 1320
16.96 1457
16.98 1552
17 1706
17.02 1873
17.04 1754
17.06 1512
17.08 1438
17.1 1191
17.12 1137
17.14 1026
17.16 1023
17.18 1018
17.2 971
17.22 977
17.24 945
17.26 938
17.28 964
17.3 952
17.32 974
17.34 975
17.36 981
17.38 1058
17.4 1030
17.42 1026
17.44 995
17.46 982
17.48 993
17.5 944
17.52 997
17.54 1029
17.56 1035
17.58 1081
17.6 1020
17.62 1046
17.64 1046
17.66 1106
17.68 1039
17.7 1033
17.72 1084
17.74 1115
17.76 1060
17.78 1172
17.8 1117
17.82 1052
17.84 1123
17.86 1087
17.88 1133
17.9 1089
17.92 1136
17.94 1059
17.96 1094
17.98 1175
18 1201
18.02 1177
18.04 1171
18.06 1249
18.08 1177
18.1 1193
18.12 1104
18.14 1134
18.16 1137
18.18 1100
18.2 1063
18.22 1051
18.24 1097
18.26 1071
18.28 1169
18.3 1110
18.32 1162
18.34 1131
18.36 1193
18.38 1158
18.4 1145
18.42 1135
18.44 1225
18.46 1191
18.48 1244
18.5 1244
18.52 1312
18.54 1270
18.56 1294
18.58 1328
18.6 1307
18.62 1288
18.64 1255
18.66 1266
18.68 1183
18.7 1175
18.72 1270
18.74 1153
18.76 1170
18.78 1189
18.8 1262
18.82 1222
18.84 1210
18.86 1191
18.88 1148
18.9 1195
18.92 1215
18.94 1229
18.96 1245
18.98 1206
19 1220
19.02 1218
19.04 1250
19.06 1275
19.08 1257
19.1 1248
19.12 1264
19.14 1306
19.16 1253
19.18 1281
19.2 1310
19.22 1289
19.24 1326
19.26 1270
19.28 1283
19.3 1262
19.32 1265
19.34 1308
19.36 1323
19.38 1344
19.4 1329
19.42 1329
19.44 1367
19.46 1285
19.48 1359
19.5 1379
19.52 1333
19.54 1340
19.56 1346
19.58 1440
19.6 1345
19.62 1365
19.64 1325
19.66 1358
19.68 1405
19.7 1398
19.72 1342
19.74 1402
19.76 1439
19.78 1391
19.8 1400
19.82 1451
19.84 1492
19.86 1517
19.88 1567
19.9 1632
19.92 1707
19.94 1789
19.96 1902
19.98 1855
20 1708