File: xrd-UiO-67/pxrddata/37-12.ASC
3 2457
3.02 2221
3.04 2138
3.06 1970
3.08 1944
3.1 1784
3.12 1708
3.14 1722
3.16 1683
3.18 1691
3.2 1635
3.22 1642
3.24 1500
3.26 1605
3.28 1567
3.3 1504
3.32 1621
3.34 1573
3.36 1543
3.38 1513
3.4 1457
3.42 1428
3.44 1483
3.46 1422
3.48 1437
3.5 1427
3.52 1509
3.54 1343
3.56 1381
3.58 1375
3.6 1336
3.62 1348
3.64 1333
3.66 1327
3.68 1337
3.7 1318
3.72 1226
3.74 1362
3.76 1333
3.78 1253
3.8 1260
3.82 1262
3.84 1241
3.86 1273
3.88 1237
3.9 1215
3.92 1171
3.94 1200
3.96 1215
3.98 1165
4 1184
4.02 1145
4.04 1133
4.06 1206
4.08 1184
4.1 1186
4.12 1220
4.14 1147
4.16 1176
4.18 1175
4.2 1132
4.22 1214
4.24 1196
4.26 1129
4.28 1082
4.3 1133
4.32 1111
4.34 1070
4.36 1128
4.38 1123
4.4 1071
4.42 1103
4.44 1131
4.46 1120
4.48 1123
4.5 1058
4.52 1084
4.54 1132
4.56 1153
4.58 1076
4.6 1136
4.62 1130
4.64 1067
4.66 1069
4.68 1118
4.7 1120
4.72 1147
4.74 1162
4.76 1105
4.78 1088
4.8 1126
4.82 1081
4.84 1087
4.86 1068
4.88 1016
4.9 1085
4.92 997
4.94 1059
4.96 1090
4.98 1044
5 1041
5.02 1097
5.04 1047
5.06 1052
5.08 1047
5.1 1082
5.12 1107
5.14 1101
5.16 1095
5.18 1016
5.2 1121
5.22 1102
5.24 1148
5.26 1135
5.28 1188
5.3 1137
5.32 1168
5.34 1236
5.36 1146
5.38 1190
5.4 1296
5.42 1329
5.44 1357
5.46 1260
5.48 1157
5.5 1034
5.52 1010
5.54 1027
5.56 961
5.58 958
5.6 932
5.62 924
5.64 945
5.66 964
5.68 889
5.7 889
5.72 911
5.74 857
5.76 883
5.78 869
5.8 851
5.82 869
5.84 881
5.86 859
5.88 873
5.9 839
5.92 820
5.94 837
5.96 852
5.98 850
6 831
6.02 818
6.04 812
6.06 772
6.08 820
6.1 798
6.12 818
6.14 826
6.16 825
6.18 810
6.2 775
6.22 792
6.24 769
6.26 793
6.28 823
6.3 748
6.32 770
6.34 750
6.36 828
6.38 803
6.4 806
6.42 706
6.44 766
6.46 726
6.48 754
6.5 787
6.52 708
6.54 738
6.56 738
6.58 766
6.6 788
6.62 727
6.64 726
6.66 725
6.68 731
6.7 734
6.72 753
6.74 721
6.76 657
6.78 729
6.8 734
6.82 689
6.84 703
6.86 756
6.88 752
6.9 700
6.92 679
6.94 739
6.96 743
6.98 758
7 753
7.02 710
7.04 744
7.06 760
7.08 706
7.1 680
7.12 771
7.14 723
7.16 731
7.18 715
7.2 757
7.22 702
7.24 682
7.26 662
7.28 734
7.3 706
7.32 711
7.34 663
7.36 601
7.38 677
7.4 689
7.42 662
7.44 710
7.46 686
7.48 710
7.5 691
7.52 708
7.54 666
7.56 739
7.58 693
7.6 678
7.62 725
7.64 667
7.66 715
7.68 676
7.7 668
7.72 666
7.74 684
7.76 706
7.78 709
7.8 687
7.82 653
7.84 683
7.86 673
7.88 721
7.9 677
7.92 661
7.94 637
7.96 630
7.98 693
8 649
8.02 652
8.04 667
8.06 667
8.08 694
8.1 643
8.12 637
8.14 610
8.16 687
8.18 649
8.2 703
8.22 687
8.24 633
8.26 691
8.28 650
8.3 652
8.32 686
8.34 661
8.36 651
8.38 637
8.4 666
8.42 692
8.44 644
8.46 653
8.48 689
8.5 695
8.52 640
8.54 662
8.56 640
8.58 664
8.6 625
8.62 702
8.64 629
8.66 695
8.68 643
8.7 653
8.72 650
8.74 703
8.76 609
8.78 632
8.8 634
8.82 682
8.84 657
8.86 662
8.88 638
8.9 671
8.92 689
8.94 671
8.96 625
8.98 663
9 668
9.02 697
9.04 662
9.06 669
9.08 684
9.1 659
9.12 681
9.14 713
9.16 690
9.18 692
9.2 718
9.22 676
9.24 660
9.26 701
9.28 716
9.3 689
9.32 762
9.34 771
9.36 765
9.38 748
9.4 687
9.42 725
9.44 726
9.46 678
9.48 688
9.5 663
9.52 674
9.54 664
9.56 615
9.58 643
9.6 679
9.62 685
9.64 573
9.66 611
9.68 638
9.7 606
9.72 650
9.74 624
9.76 660
9.78 633
9.8 677
9.82 636
9.84 598
9.86 640
9.88 586
9.9 666
9.92 595
9.94 621
9.96 652
9.98 590
10 579
10.02 598
10.04 569
10.06 637
10.08 627
10.1 640
10.12 650
10.14 606
10.16 595
10.18 590
10.2 616
10.22 613
10.24 643
10.26 595
10.28 631
10.3 589
10.32 611
10.34 674
10.36 636
10.38 604
10.4 666
10.42 599
10.44 608
10.46 581
10.48 610
10.5 569
10.52 611
10.54 630
10.56 642
10.58 633
10.6 656
10.62 633
10.64 603
10.66 628
10.68 670
10.7 645
10.72 658
10.74 684
10.76 661
10.78 671
10.8 677
10.82 624
10.84 636
10.86 632
10.88 617
10.9 600
10.92 650
10.94 609
10.96 598
10.98 665
11 591
11.02 608
11.04 632
11.06 606
11.08 590
11.1 623
11.12 531
11.14 617
11.16 633
11.18 637
11.2 567
11.22 598
11.24 602
11.26 610
11.28 627
11.3 577
11.32 607
11.34 597
11.36 601
11.38 598
11.4 593
11.42 640
11.44 590
11.46 619
11.48 595
11.5 611
11.52 608
11.54 595
11.56 596
11.58 613
11.6 589
11.62 641
11.64 633
11.66 633
11.68 588
11.7 586
11.72 633
11.74 615
11.76 635
11.78 624
11.8 592
11.82 578
11.84 618
11.86 605
11.88 573
11.9 614
11.92 630
11.94 602
11.96 633
11.98 620
12 614
12.02 637
12.04 626
12.06 608
12.08 602
12.1 606
12.12 609
12.14 613
12.16 596
12.18 598
12.2 620
12.22 616
12.24 608
12.26 590
12.28 586
12.3 585
12.32 617
12.34 654
12.36 670
12.38 644
12.4 619
12.42 644
12.44 633
12.46 636
12.48 609
12.5 657
12.52 573
12.54 598
12.56 624
12.58 574
12.6 579
12.62 617
12.64 645
12.66 651
12.68 632
12.7 657
12.72 629
12.74 658
12.76 642
12.78 602
12.8 661
12.82 577
12.84 617
12.86 640
12.88 688
12.9 664
12.92 609
12.94 624
12.96 666
12.98 640
13 652
13.02 637
13.04 591
13.06 660
13.08 620
13.1 616
13.12 653
13.14 612
13.16 576
13.18 598
13.2 629
13.22 681
13.24 699
13.26 706
13.28 677
13.3 676
13.32 646
13.34 641
13.36 680
13.38 636
13.4 640
13.42 654
13.44 660
13.46 675
13.48 645
13.5 645
13.52 708
13.54 687
13.56 686
13.58 674
13.6 642
13.62 669
13.64 642
13.66 635
13.68 625
13.7 641
13.72 659
13.74 709
13.76 656
13.78 642
13.8 697
13.82 707
13.84 679
13.86 689
13.88 657
13.9 688
13.92 702
13.94 688
13.96 685
13.98 681
14 693
14.02 668
14.04 689
14.06 679
14.08 678
14.1 658
14.12 713
14.14 671
14.16 687
14.18 723
14.2 723
14.22 722
14.24 695
14.26 700
14.28 686
14.3 677
14.32 697
14.34 696
14.36 731
14.38 743
14.4 679
14.42 698
14.44 687
14.46 715
14.48 716
14.5 708
14.52 756
14.54 694
14.56 645
14.58 696
14.6 693
14.62 698
14.64 719
14.66 710
14.68 705
14.7 721
14.72 700
14.74 734
14.76 707
14.78 726
14.8 712
14.82 703
14.84 766
14.86 727
14.88 742
14.9 757
14.92 751
14.94 712
14.96 710
14.98 758
15 710
15.02 748
15.04 753
15.06 751
15.08 737
15.1 756
15.12 794
15.14 728
15.16 743
15.18 769
15.2 748
15.22 750
15.24 766
15.26 758
15.28 740
15.3 737
15.32 759
15.34 769
15.36 764
15.38 746
15.4 806
15.42 809
15.44 747
15.46 784
15.48 799
15.5 748
15.52 759
15.54 822
15.56 736
15.58 809
15.6 807
15.62 794
15.64 784
15.66 766
15.68 785
15.7 812
15.72 807
15.74 785
15.76 810
15.78 831
15.8 740
15.82 781
15.84 790
15.86 785
15.88 857
15.9 810
15.92 824
15.94 825
15.96 777
15.98 787
16 820
16.02 841
16.04 778
16.06 817
16.08 803
16.1 795
16.12 825
16.14 828
16.16 800
16.18 815
16.2 810
16.22 867
16.24 833
16.26 825
16.28 859
16.3 830
16.32 937
16.34 821
16.36 842
16.38 857
16.4 888
16.42 848
16.44 841
16.46 854
16.48 860
16.5 875
16.52 965
16.54 832
16.56 829
16.58 926
16.6 892
16.62 907
16.64 890
16.66 819
16.68 864
16.7 929
16.72 902
16.74 938
16.76 948
16.78 915
16.8 894
16.82 986
16.84 954
16.86 967
16.88 1041
16.9 1055
16.92 1076
16.94 1171
16.96 1239
16.98 1306
17 1380
17.02 1446
17.04 1501
17.06 1441
17.08 1262
17.1 1181
17.12 1004
17.14 965
17.16 1017
17.18 966
17.2 930
17.22 933
17.24 957
17.26 967
17.28 952
17.3 987
17.32 944
17.34 988
17.36 1004
17.38 1072
17.4 959
17.42 986
17.44 1035
17.46 982
17.48 1007
17.5 1021
17.52 1024
17.54 1021
17.56 1024
17.58 950
17.6 1036
17.62 1042
17.64 1002
17.66 1006
17.68 1029
17.7 1040
17.72 985
17.74 1021
17.76 1018
17.78 1009
17.8 1012
17.82 1057
17.84 1056
17.86 1045
17.88 1070
17.9 1072
17.92 1089
17.94 1069
17.96 1009
17.98 1075
18 1031
18.02 1050
18.04 1070
18.06 1086
18.08 1070
18.1 1103
18.12 1068
18.14 1108
18.16 1042
18.18 1070
18.2 1028
18.22 1020
18.24 1066
18.26 1060
18.28 1089
18.3 1044
18.32 987
18.34 1119
18.36 1124
18.38 1112
18.4 1084
18.42 1114
18.44 1136
18.46 1108
18.48 1092
18.5 1131
18.52 1147
18.54 1207
18.56 1152
18.58 1174
18.6 1112
18.62 1126
18.64 1137
18.66 1100
18.68 1112
18.7 1150
18.72 1227
18.74 1168
18.76 1208
18.78 1198
18.8 1168
18.82 1237
18.84 1212
18.86 1198
18.88 1147
18.9 1146
18.92 1194
18.94 1233
18.96 1191
18.98 1128
19 1170
19.02 1200
19.04 1155
19.06 1213
19.08 1255
19.1 1257
19.12 1249
19.14 1184
19.16 1270
19.18 1237
19.2 1198
19.22 1284
19.24 1317
19.26 1201
19.28 1203
19.3 1258
19.32 1277
19.34 1283
19.36 1257
19.38 1234
19.4 1303
19.42 1229
19.44 1294
19.46 1278
19.48 1288
19.5 1359
19.52 1278
19.54 1318
19.56 1351
19.58 1298
19.6 1330
19.62 1266
19.64 1319
19.66 1371
19.68 1287
19.7 1266
19.72 1270
19.74 1394
19.76 1355
19.78 1340
19.8 1351
19.82 1372
19.84 1310
19.86 1372
19.88 1323
19.9 1373
19.92 1357
19.94 1351
19.96 1372
19.98 1380
20 1360