File: xrd-UiO-67/pxrddata/37-13-1.ASC
3 2492
3.02 2284
3.04 2158
3.06 2009
3.08 1930
3.1 1857
3.12 1802
3.14 1846
3.16 1757
3.18 1704
3.2 1719
3.22 1737
3.24 1707
3.26 1612
3.28 1655
3.3 1604
3.32 1549
3.34 1542
3.36 1575
3.38 1488
3.4 1572
3.42 1569
3.44 1536
3.46 1504
3.48 1475
3.5 1460
3.52 1467
3.54 1475
3.56 1406
3.58 1439
3.6 1443
3.62 1473
3.64 1344
3.66 1409
3.68 1349
3.7 1409
3.72 1310
3.74 1355
3.76 1373
3.78 1342
3.8 1360
3.82 1334
3.84 1287
3.86 1292
3.88 1314
3.9 1267
3.92 1280
3.94 1256
3.96 1298
3.98 1312
4 1238
4.02 1277
4.04 1171
4.06 1208
4.08 1191
4.1 1200
4.12 1175
4.14 1177
4.16 1259
4.18 1269
4.2 1168
4.22 1232
4.24 1189
4.26 1241
4.28 1182
4.3 1189
4.32 1173
4.34 1126
4.36 1124
4.38 1128
4.4 1131
4.42 1147
4.44 1144
4.46 1129
4.48 1138
4.5 1166
4.52 1104
4.54 1096
4.56 1105
4.58 1113
4.6 1066
4.62 1062
4.64 1099
4.66 1135
4.68 1151
4.7 1008
4.72 1017
4.74 1026
4.76 1053
4.78 1019
4.8 1074
4.82 1072
4.84 1076
4.86 1096
4.88 1107
4.9 1038
4.92 1004
4.94 1123
4.96 1060
4.98 1051
5 1022
5.02 1027
5.04 1117
5.06 1037
5.08 1056
5.1 1077
5.12 1058
5.14 1055
5.16 1055
5.18 1073
5.2 1127
5.22 1156
5.24 1082
5.26 1138
5.28 1118
5.3 1178
5.32 1175
5.34 1190
5.36 1186
5.38 1174
5.4 1202
5.42 1279
5.44 1222
5.46 1172
5.48 1167
5.5 1143
5.52 1052
5.54 1062
5.56 1031
5.58 1027
5.6 956
5.62 985
5.64 991
5.66 963
5.68 979
5.7 942
5.72 923
5.74 926
5.76 982
5.78 895
5.8 927
5.82 873
5.84 917
5.86 909
5.88 887
5.9 885
5.92 894
5.94 894
5.96 851
5.98 840
6 822
6.02 835
6.04 827
6.06 854
6.08 806
6.1 836
6.12 877
6.14 855
6.16 807
6.18 836
6.2 788
6.22 788
6.24 826
6.26 811
6.28 818
6.3 774
6.32 824
6.34 797
6.36 778
6.38 835
6.4 781
6.42 769
6.44 775
6.46 815
6.48 764
6.5 732
6.52 689
6.54 738
6.56 755
6.58 774
6.6 723
6.62 771
6.64 775
6.66 679
6.68 714
6.7 712
6.72 718
6.74 747
6.76 723
6.78 759
6.8 728
6.82 725
6.84 712
6.86 708
6.88 738
6.9 725
6.92 693
6.94 719
6.96 724
6.98 687
7 706
7.02 673
7.04 712
7.06 706
7.08 696
7.1 707
7.12 619
7.14 695
7.16 673
7.18 721
7.2 688
7.22 674
7.24 638
7.26 683
7.28 672
7.3 711
7.32 701
7.34 699
7.36 662
7.38 688
7.4 640
7.42 662
7.44 654
7.46 721
7.48 642
7.5 690
7.52 691
7.54 693
7.56 737
7.58 650
7.6 683
7.62 652
7.64 677
7.66 647
7.68 677
7.7 609
7.72 648
7.74 657
7.76 690
7.78 663
7.8 623
7.82 624
7.84 610
7.86 663
7.88 665
7.9 658
7.92 632
7.94 653
7.96 594
7.98 617
8 685
8.02 670
8.04 640
8.06 648
8.08 644
8.1 654
8.12 642
8.14 593
8.16 622
8.18 632
8.2 655
8.22 639
8.24 673
8.26 625
8.28 642
8.3 600
8.32 677
8.34 583
8.36 614
8.38 661
8.4 610
8.42 627
8.44 615
8.46 612
8.48 638
8.5 643
8.52 599
8.54 651
8.56 632
8.58 637
8.6 650
8.62 630
8.64 628
8.66 643
8.68 618
8.7 610
8.72 553
8.74 665
8.76 607
8.78 602
8.8 596
8.82 638
8.84 646
8.86 625
8.88 659
8.9 568
8.92 644
8.94 626
8.96 585
8.98 593
9 615
9.02 588
9.04 611
9.06 639
9.08 648
9.1 621
9.12 641
9.14 673
9.16 673
9.18 646
9.2 661
9.22 648
9.24 675
9.26 688
9.28 696
9.3 727
9.32 709
9.34 740
9.36 738
9.38 702
9.4 803
9.42 696
9.44 738
9.46 709
9.48 711
9.5 665
9.52 678
9.54 653
9.56 650
9.58 655
9.6 660
9.62 646
9.64 597
9.66 621
9.68 638
9.7 637
9.72 668
9.74 628
9.76 639
9.78 610
9.8 648
9.82 609
9.84 629
9.86 604
9.88 630
9.9 607
9.92 619
9.94 598
9.96 615
9.98 606
10 582
10.02 602
10.04 595
10.06 578
10.08 623
10.1 603
10.12 608
10.14 604
10.16 610
10.18 548
10.2 578
10.22 620
10.24 605
10.26 590
10.28 601
10.3 604
10.32 575
10.34 597
10.36 600
10.38 574
10.4 588
10.42 596
10.44 600
10.46 603
10.48 612
10.5 584
10.52 598
10.54 591
10.56 573
10.58 569
10.6 617
10.62 596
10.64 604
10.66 604
10.68 589
10.7 623
10.72 598
10.74 547
10.76 598
10.78 633
10.8 610
10.82 608
10.84 622
10.86 629
10.88 598
10.9 606
10.92 546
10.94 598
10.96 608
10.98 568
11 548
11.02 574
11.04 572
11.06 576
11.08 584
11.1 621
11.12 610
11.14 595
11.16 595
11.18 573
11.2 598
11.22 582
11.24 592
11.26 583
11.28 596
11.3 568
11.32 552
11.34 552
11.36 591
11.38 570
11.4 567
11.42 604
11.44 576
11.46 574
11.48 554
11.5 550
11.52 570
11.54 542
11.56 600
11.58 599
11.6 586
11.62 616
11.64 587
11.66 575
11.68 615
11.7 587
11.72 551
11.74 578
11.76 612
11.78 592
11.8 557
11.82 634
11.84 550
11.86 580
11.88 612
11.9 599
11.92 609
11.94 538
11.96 607
11.98 622
12 580
12.02 554
12.04 545
12.06 582
12.08 594
12.1 575
12.12 578
12.14 569
12.16 590
12.18 534
12.2 616
12.22 584
12.24 574
12.26 527
12.28 599
12.3 662
12.32 595
12.34 557
12.36 574
12.38 579
12.4 601
12.42 601
12.44 579
12.46 558
12.48 589
12.5 616
12.52 573
12.54 631
12.56 581
12.58 605
12.6 589
12.62 593
12.64 589
12.66 612
12.68 591
12.7 583
12.72 585
12.74 608
12.76 590
12.78 586
12.8 560
12.82 644
12.84 554
12.86 573
12.88 586
12.9 620
12.92 588
12.94 572
12.96 602
12.98 620
13 593
13.02 594
13.04 622
13.06 624
13.08 627
13.1 618
13.12 602
13.14 600
13.16 607
13.18 619
13.2 592
13.22 605
13.24 614
13.26 612
13.28 640
13.3 593
13.32 595
13.34 615
13.36 603
13.38 613
13.4 617
13.42 618
13.44 644
13.46 645
13.48 591
13.5 662
13.52 601
13.54 590
13.56 646
13.58 612
13.6 572
13.62 589
13.64 656
13.66 617
13.68 636
13.7 686
13.72 632
13.74 642
13.76 581
13.78 634
13.8 630
13.82 643
13.84 629
13.86 618
13.88 668
13.9 611
13.92 635
13.94 630
13.96 667
13.98 688
14 624
14.02 671
14.04 639
14.06 682
14.08 608
14.1 678
14.12 639
14.14 693
14.16 621
14.18 600
14.2 662
14.22 674
14.24 636
14.26 634
14.28 637
14.3 681
14.32 670
14.34 700
14.36 690
14.38 674
14.4 688
14.42 627
14.44 709
14.46 654
14.48 629
14.5 639
14.52 675
14.54 644
14.56 694
14.58 678
14.6 642
14.62 714
14.64 656
14.66 666
14.68 670
14.7 646
14.72 633
14.74 665
14.76 727
14.78 669
14.8 697
14.82 688
14.84 705
14.86 705
14.88 698
14.9 684
14.92 668
14.94 728
14.96 676
14.98 655
15 663
15.02 676
15.04 682
15.06 697
15.08 671
15.1 664
15.12 725
15.14 698
15.16 683
15.18 739
15.2 703
15.22 706
15.24 684
15.26 734
15.28 700
15.3 689
15.32 743
15.34 684
15.36 717
15.38 706
15.4 710
15.42 693
15.44 707
15.46 685
15.48 688
15.5 693
15.52 741
15.54 786
15.56 691
15.58 679
15.6 735
15.62 752
15.64 710
15.66 706
15.68 721
15.7 725
15.72 719
15.74 737
15.76 742
15.78 769
15.8 741
15.82 767
15.84 712
15.86 760
15.88 750
15.9 718
15.92 788
15.94 805
15.96 749
15.98 777
16 735
16.02 722
16.04 729
16.06 747
16.08 744
16.1 741
16.12 760
16.14 714
16.16 775
16.18 780
16.2 780
16.22 783
16.24 783
16.26 771
16.28 821
16.3 762
16.32 761
16.34 800
16.36 777
16.38 767
16.4 756
16.42 787
16.44 747
16.46 816
16.48 809
16.5 779
16.52 798
16.54 771
16.56 807
16.58 822
16.6 812
16.62 838
16.64 830
16.66 827
16.68 814
16.7 838
16.72 825
16.74 875
16.76 855
16.78 870
16.8 908
16.82 873
16.84 932
16.86 975
16.88 1013
16.9 1103
16.92 1145
16.94 1218
16.96 1297
16.98 1405
17 1333
17.02 1163
17.04 1032
17.06 958
17.08 941
17.1 891
17.12 898
17.14 886
17.16 871
17.18 886
17.2 905
17.22 939
17.24 845
17.26 878
17.28 884
17.3 917
17.32 877
17.34 911
17.36 876
17.38 819
17.4 922
17.42 904
17.44 899
17.46 916
17.48 944
17.5 891
17.52 872
17.54 877
17.56 931
17.58 874
17.6 947
17.62 924
17.64 927
17.66 868
17.68 926
17.7 922
17.72 964
17.74 938
17.76 924
17.78 936
17.8 946
17.82 912
17.84 903
17.86 932
17.88 998
17.9 931
17.92 939
17.94 946
17.96 964
17.98 971
18 924
18.02 974
18.04 937
18.06 953
18.08 931
18.1 911
18.12 969
18.14 973
18.16 978
18.18 984
18.2 984
18.22 1046
18.24 986
18.26 918
18.28 988
18.3 1031
18.32 1017
18.34 1000
18.36 935
18.38 1006
18.4 998
18.42 1050
18.44 981
18.46 963
18.48 1004
18.5 1029
18.52 1067
18.54 950
18.56 1020
18.58 984
18.6 1002
18.62 992
18.64 1059
18.66 1013
18.68 1041
18.7 1050
18.72 1066
18.74 1061
18.76 1066
18.78 1088
18.8 1033
18.82 1055
18.84 1086
18.86 1087
18.88 1048
18.9 1054
18.92 1081
18.94 1068
18.96 1082
18.98 978
19 1101
19.02 1105
19.04 1122
19.06 1105
19.08 1084
19.1 1139
19.12 1135
19.14 1036
19.16 1091
19.18 1076
19.2 1115
19.22 1118
19.24 1064
19.26 1075
19.28 1151
19.3 1100
19.32 1119
19.34 1079
19.36 1128
19.38 1134
19.4 1097
19.42 1144
19.44 1141
19.46 1135
19.48 1163
19.5 1138
19.52 1153
19.54 1126
19.56 1141
19.58 1113
19.6 1171
19.62 1251
19.64 1151
19.66 1158
19.68 1173
19.7 1161
19.72 1206
19.74 1183
19.76 1181
19.78 1165
19.8 1209
19.82 1165
19.84 1175
19.86 1128
19.88 1212
19.9 1215
19.92 1205
19.94 1221
19.96 1156
19.98 1155
20 1190