File: xrd-UiO-67/pxrddata/37-1.ASC
3 1946
3.02 1920
3.04 1670
3.06 1599
3.08 1562
3.1 1472
3.12 1421
3.14 1347
3.16 1388
3.18 1400
3.2 1294
3.22 1371
3.24 1275
3.26 1354
3.28 1285
3.3 1347
3.32 1239
3.34 1368
3.36 1315
3.38 1225
3.4 1233
3.42 1217
3.44 1190
3.46 1230
3.48 1267
3.5 1255
3.52 1248
3.54 1202
3.56 1210
3.58 1206
3.6 1166
3.62 1134
3.64 1176
3.66 1158
3.68 1113
3.7 1146
3.72 1115
3.74 1209
3.76 1120
3.78 1203
3.8 1095
3.82 1084
3.84 1108
3.86 1104
3.88 1066
3.9 1129
3.92 1096
3.94 1086
3.96 1080
3.98 1108
4 1061
4.02 1133
4.04 1112
4.06 1027
4.08 1096
4.1 1060
4.12 1059
4.14 1021
4.16 1033
4.18 1043
4.2 1070
4.22 984
4.24 1054
4.26 1094
4.28 1023
4.3 994
4.32 1018
4.34 998
4.36 1070
4.38 975
4.4 995
4.42 1037
4.44 985
4.46 998
4.48 1003
4.5 984
4.52 968
4.54 928
4.56 1034
4.58 986
4.6 947
4.62 980
4.64 926
4.66 971
4.68 987
4.7 986
4.72 992
4.74 914
4.76 944
4.78 1057
4.8 973
4.82 957
4.84 952
4.86 947
4.88 846
4.9 949
4.92 933
4.94 956
4.96 951
4.98 922
5 901
5.02 939
5.04 938
5.06 905
5.08 956
5.1 937
5.12 932
5.14 934
5.16 920
5.18 879
5.2 879
5.22 874
5.24 848
5.26 925
5.28 879
5.3 863
5.32 896
5.34 854
5.36 871
5.38 892
5.4 864
5.42 846
5.44 882
5.46 916
5.48 900
5.5 934
5.52 923
5.54 845
5.56 844
5.58 856
5.6 916
5.62 858
5.64 799
5.66 840
5.68 937
5.7 842
5.72 893
5.74 899
5.76 870
5.78 817
5.8 768
5.82 829
5.84 842
5.86 812
5.88 795
5.9 857
5.92 801
5.94 769
5.96 809
5.98 767
6 788
6.02 782
6.04 726
6.06 734
6.08 766
6.1 744
6.12 715
6.14 784
6.16 739
6.18 740
6.2 676
6.22 688
6.24 745
6.26 676
6.28 692
6.3 690
6.32 662
6.34 649
6.36 660
6.38 674
6.4 669
6.42 703
6.44 642
6.46 658
6.48 667
6.5 632
6.52 659
6.54 643
6.56 635
6.58 648
6.6 634
6.62 642
6.64 594
6.66 620
6.68 638
6.7 616
6.72 617
6.74 588
6.76 596
6.78 603
6.8 536
6.82 614
6.84 621
6.86 613
6.88 583
6.9 634
6.92 549
6.94 621
6.96 602
6.98 575
7 558
7.02 603
7.04 565
7.06 564
7.08 570
7.1 511
7.12 543
7.14 608
7.16 575
7.18 567
7.2 567
7.22 547
7.24 549
7.26 566
7.28 573
7.3 566
7.32 589
7.34 545
7.36 544
7.38 555
7.4 556
7.42 561
7.44 494
7.46 546
7.48 538
7.5 513
7.52 535
7.54 478
7.56 595
7.58 519
7.6 572
7.62 519
7.64 525
7.66 510
7.68 492
7.7 527
7.72 520
7.74 524
7.76 515
7.78 520
7.8 497
7.82 470
7.84 547
7.86 529
7.88 529
7.9 548
7.92 499
7.94 558
7.96 510
7.98 540
8 505
8.02 494
8.04 552
8.06 489
8.08 518
8.1 516
8.12 505
8.14 496
8.16 506
8.18 527
8.2 475
8.22 471
8.24 520
8.26 500
8.28 513
8.3 485
8.32 495
8.34 516
8.36 468
8.38 516
8.4 511
8.42 503
8.44 518
8.46 505
8.48 506
8.5 481
8.52 459
8.54 481
8.56 462
8.58 518
8.6 490
8.62 497
8.64 475
8.66 483
8.68 493
8.7 467
8.72 469
8.74 496
8.76 473
8.78 508
8.8 439
8.82 461
8.84 482
8.86 500
8.88 516
8.9 519
8.92 471
8.94 500
8.96 486
8.98 503
9 492
9.02 472
9.04 489
9.06 462
9.08 487
9.1 431
9.12 483
9.14 457
9.16 499
9.18 468
9.2 465
9.22 455
9.24 501
9.26 487
9.28 488
9.3 510
9.32 498
9.34 487
9.36 498
9.38 504
9.4 477
9.42 540
9.44 511
9.46 549
9.48 472
9.5 532
9.52 486
9.54 487
9.56 491
9.58 456
9.6 493
9.62 547
9.64 466
9.66 487
9.68 486
9.7 438
9.72 486
9.74 484
9.76 496
9.78 460
9.8 423
9.82 479
9.84 493
9.86 477
9.88 490
9.9 491
9.92 450
9.94 447
9.96 441
9.98 454
10 458
10.02 491
10.04 474
10.06 465
10.08 465
10.1 436
10.12 443
10.14 467
10.16 452
10.18 464
10.2 439
10.22 483
10.24 424
10.26 429
10.28 412
10.3 422
10.32 454
10.34 463
10.36 469
10.38 446
10.4 439
10.42 426
10.44 445
10.46 432
10.48 420
10.5 425
10.52 438
10.54 440
10.56 407
10.58 443
10.6 447
10.62 418
10.64 430
10.66 486
10.68 444
10.7 463
10.72 455
10.74 455
10.76 420
10.78 487
10.8 438
10.82 420
10.84 449
10.86 423
10.88 415
10.9 442
10.92 436
10.94 424
10.96 429
10.98 434
11 412
11.02 413
11.04 420
11.06 424
11.08 408
11.1 449
11.12 446
11.14 403
11.16 450
11.18 448
11.2 390
11.22 416
11.24 411
11.26 417
11.28 404
11.3 441
11.32 410
11.34 436
11.36 416
11.38 438
11.4 431
11.42 469
11.44 416
11.46 426
11.48 422
11.5 434
11.52 445
11.54 431
11.56 471
11.58 425
11.6 432
11.62 440
11.64 422
11.66 425
11.68 425
11.7 460
11.72 483
11.74 422
11.76 444
11.78 433
11.8 395
11.82 405
11.84 416
11.86 425
11.88 411
11.9 431
11.92 421
11.94 427
11.96 400
11.98 425
12 402
12.02 435
12.04 430
12.06 417
12.08 441
12.1 401
12.12 415
12.14 434
12.16 432
12.18 398
12.2 424
12.22 422
12.24 399
12.26 419
12.28 443
12.3 440
12.32 400
12.34 409
12.36 410
12.38 459
12.4 427
12.42 409
12.44 402
12.46 406
12.48 405
12.5 411
12.52 447
12.54 399
12.56 421
12.58 413
12.6 405
12.62 419
12.64 393
12.66 439
12.68 406
12.7 442
12.72 400
12.74 393
12.76 429
12.78 423
12.8 439
12.82 416
12.84 437
12.86 407
12.88 411
12.9 445
12.92 409
12.94 444
12.96 436
12.98 432
13 430
13.02 388
13.04 416
13.06 432
13.08 416
13.1 426
13.12 428
13.14 455
13.16 432
13.18 421
13.2 447
13.22 438
13.24 405
13.26 465
13.28 444
13.3 413
13.32 457
13.34 426
13.36 443
13.38 445
13.4 410
13.42 404
13.44 436
13.46 424
13.48 431
13.5 447
13.52 441
13.54 429
13.56 409
13.58 408
13.6 458
13.62 454
13.64 396
13.66 438
13.68 431
13.7 430
13.72 410
13.74 442
13.76 427
13.78 439
13.8 457
13.82 438
13.84 429
13.86 430
13.88 447
13.9 434
13.92 449
13.94 447
13.96 424
13.98 448
14 478
14.02 440
14.04 437
14.06 437
14.08 472
14.1 467
14.12 485
14.14 464
14.16 447
14.18 428
14.2 445
14.22 478
14.24 436
14.26 427
14.28 449
14.3 469
14.32 460
14.34 458
14.36 421
14.38 444
14.4 447
14.42 418
14.44 476
14.46 441
14.48 472
14.5 456
14.52 486
14.54 506
14.56 454
14.58 460
14.6 529
14.62 452
14.64 464
14.66 459
14.68 435
14.7 462
14.72 441
14.74 457
14.76 479
14.78 454
14.8 442
14.82 463
14.84 470
14.86 464
14.88 479
14.9 415
14.92 444
14.94 488
14.96 464
14.98 457
15 475
15.02 486
15.04 477
15.06 451
15.08 449
15.1 478
15.12 460
15.14 485
15.16 443
15.18 461
15.2 488
15.22 483
15.24 490
15.26 470
15.28 455
15.3 459
15.32 459
15.34 524
15.36 507
15.38 492
15.4 520
15.42 493
15.44 460
15.46 472
15.48 449
15.5 493
15.52 487
15.54 467
15.56 508
15.58 492
15.6 452
15.62 488
15.64 466
15.66 522
15.68 480
15.7 461
15.72 493
15.74 509
15.76 454
15.78 504
15.8 498
15.82 493
15.84 512
15.86 501
15.88 507
15.9 483
15.92 558
15.94 491
15.96 499
15.98 511
16 503
16.02 496
16.04 499
16.06 496
16.08 495
16.1 495
16.12 515
16.14 505
16.16 513
16.18 517
16.2 500
16.22 526
16.24 460
16.26 522
16.28 512
16.3 518
16.32 512
16.34 526
16.36 520
16.38 529
16.4 538
16.42 514
16.44 549
16.46 509
16.48 483
16.5 501
16.52 523
16.54 534
16.56 499
16.58 518
16.6 520
16.62 543
16.64 510
16.66 489
16.68 528
16.7 545
16.72 535
16.74 546
16.76 545
16.78 520
16.8 522
16.82 585
16.84 592
16.86 586
16.88 599
16.9 626
16.92 618
16.94 626
16.96 623
16.98 660
17 677
17.02 698
17.04 733
17.06 692
17.08 696
17.1 655
17.12 703
17.14 640
17.16 599
17.18 633
17.2 632
17.22 627
17.24 602
17.26 599
17.28 562
17.3 585
17.32 620
17.34 565
17.36 554
17.38 580
17.4 616
17.42 560
17.44 634
17.46 630
17.48 616
17.5 587
17.52 638
17.54 596
17.56 551
17.58 567
17.6 597
17.62 576
17.64 558
17.66 592
17.68 605
17.7 587
17.72 591
17.74 599
17.76 573
17.78 591
17.8 626
17.82 582
17.84 627
17.86 580
17.88 571
17.9 583
17.92 598
17.94 599
17.96 610
17.98 661
18 587
18.02 566
18.04 599
18.06 588
18.08 615
18.1 611
18.12 644
18.14 582
18.16 604
18.18 610
18.2 591
18.22 664
18.24 615
18.26 612
18.28 579
18.3 609
18.32 589
18.34 642
18.36 647
18.38 633
18.4 638
18.42 681
18.44 598
18.46 618
18.48 669
18.5 655
18.52 623
18.54 596
18.56 606
18.58 637
18.6 645
18.62 661
18.64 724
18.66 711
18.68 654
18.7 694
18.72 702
18.74 662
18.76 664
18.78 664
18.8 679
18.82 691
18.84 663
18.86 594
18.88 653
18.9 633
18.92 700
18.94 692
18.96 686
18.98 706
19 682
19.02 684
19.04 628
19.06 721
19.08 667
19.1 715
19.12 707
19.14 684
19.16 670
19.18 657
19.2 690
19.22 704
19.24 641
19.26 722
19.28 703
19.3 702
19.32 680
19.34 702
19.36 650
19.38 713
19.4 702
19.42 682
19.44 735
19.46 689
19.48 738
19.5 756
19.52 678
19.54 728
19.56 725
19.58 722
19.6 720
19.62 689
19.64 734
19.66 699
19.68 702
19.7 708
19.72 704
19.74 683
19.76 732
19.78 710
19.8 659
19.82 739
19.84 756
19.86 795
19.88 753
19.9 744
19.92 749
19.94 751
19.96 786
19.98 712
20 757