File: xrd-UiO-67/pxrddata/37-18.ASC
3 2228
3.02 2080
3.04 1929
3.06 1817
3.08 1787
3.1 1671
3.12 1550
3.14 1602
3.16 1510
3.18 1503
3.2 1527
3.22 1467
3.24 1505
3.26 1482
3.28 1445
3.3 1382
3.32 1435
3.34 1348
3.36 1349
3.38 1364
3.4 1350
3.42 1334
3.44 1352
3.46 1388
3.48 1293
3.5 1233
3.52 1260
3.54 1290
3.56 1269
3.58 1230
3.6 1251
3.62 1185
3.64 1266
3.66 1251
3.68 1200
3.7 1150
3.72 1157
3.74 1146
3.76 1197
3.78 1199
3.8 1187
3.82 1172
3.84 1176
3.86 1133
3.88 1102
3.9 1114
3.92 1140
3.94 1178
3.96 1181
3.98 1087
4 1105
4.02 1061
4.04 1062
4.06 1132
4.08 1103
4.1 1051
4.12 1052
4.14 1029
4.16 1004
4.18 1033
4.2 984
4.22 1063
4.24 1045
4.26 1049
4.28 1036
4.3 1027
4.32 1043
4.34 1036
4.36 1061
4.38 1016
4.4 1073
4.42 1032
4.44 1036
4.46 1018
4.48 1026
4.5 1036
4.52 1009
4.54 1006
4.56 1033
4.58 1019
4.6 974
4.62 1037
4.64 966
4.66 1035
4.68 992
4.7 970
4.72 1021
4.74 1000
4.76 982
4.78 1031
4.8 991
4.82 1009
4.84 999
4.86 984
4.88 982
4.9 1008
4.92 1016
4.94 999
4.96 1044
4.98 1014
5 1043
5.02 1066
5.04 965
5.06 1027
5.08 1080
5.1 1051
5.12 1059
5.14 1080
5.16 1061
5.18 1095
5.2 1149
5.22 1170
5.24 1195
5.26 1205
5.28 1251
5.3 1302
5.32 1318
5.34 1363
5.36 1428
5.38 1617
5.4 1635
5.42 1861
5.44 1941
5.46 2138
5.48 2080
5.5 1788
5.52 1477
5.54 1337
5.56 1217
5.58 1159
5.6 1163
5.62 1062
5.64 1018
5.66 1038
5.68 985
5.7 992
5.72 950
5.74 976
5.76 915
5.78 871
5.8 900
5.82 908
5.84 918
5.86 813
5.88 830
5.9 864
5.92 820
5.94 810
5.96 854
5.98 794
6 751
6.02 762
6.04 760
6.06 739
6.08 734
6.1 737
6.12 681
6.14 763
6.16 739
6.18 696
6.2 731
6.22 703
6.24 687
6.26 717
6.28 742
6.3 686
6.32 673
6.34 688
6.36 694
6.38 684
6.4 716
6.42 740
6.44 717
6.46 664
6.48 685
6.5 706
6.52 715
6.54 687
6.56 660
6.58 656
6.6 679
6.62 716
6.64 670
6.66 647
6.68 646
6.7 640
6.72 648
6.74 673
6.76 639
6.78 642
6.8 689
6.82 637
6.84 607
6.86 633
6.88 640
6.9 661
6.92 591
6.94 647
6.96 692
6.98 647
7 622
7.02 654
7.04 620
7.06 633
7.08 609
7.1 636
7.12 641
7.14 580
7.16 624
7.18 594
7.2 607
7.22 599
7.24 645
7.26 630
7.28 622
7.3 553
7.32 586
7.34 590
7.36 629
7.38 597
7.4 604
7.42 573
7.44 622
7.46 643
7.48 599
7.5 641
7.52 619
7.54 617
7.56 590
7.58 610
7.6 582
7.62 608
7.64 566
7.66 607
7.68 631
7.7 613
7.72 619
7.74 603
7.76 596
7.78 591
7.8 584
7.82 567
7.84 592
7.86 628
7.88 565
7.9 566
7.92 573
7.94 592
7.96 606
7.98 588
8 552
8.02 554
8.04 592
8.06 599
8.08 566
8.1 576
8.12 580
8.14 615
8.16 570
8.18 606
8.2 643
8.22 590
8.24 606
8.26 599
8.28 582
8.3 623
8.32 593
8.34 610
8.36 607
8.38 619
8.4 603
8.42 583
8.44 624
8.46 615
8.48 590
8.5 566
8.52 565
8.54 643
8.56 591
8.58 551
8.6 608
8.62 629
8.64 593
8.66 571
8.68 603
8.7 630
8.72 578
8.74 652
8.76 599
8.78 625
8.8 598
8.82 599
8.84 622
8.86 625
8.88 596
8.9 629
8.92 598
8.94 597
8.96 611
8.98 599
9 586
9.02 609
9.04 607
9.06 579
9.08 636
9.1 623
9.12 668
9.14 641
9.16 666
9.18 668
9.2 680
9.22 691
9.24 736
9.26 758
9.28 791
9.3 859
9.32 911
9.34 951
9.36 1030
9.38 1053
9.4 1046
9.42 932
9.44 794
9.46 668
9.48 695
9.5 677
9.52 659
9.54 680
9.56 610
9.58 613
9.6 607
9.62 587
9.64 631
9.66 575
9.68 603
9.7 632
9.72 601
9.74 616
9.76 547
9.78 552
9.8 589
9.82 591
9.84 584
9.86 574
9.88 584
9.9 568
9.92 606
9.94 605
9.96 614
9.98 570
10 593
10.02 592
10.04 593
10.06 574
10.08 617
10.1 579
10.12 555
10.14 564
10.16 560
10.18 598
10.2 600
10.22 590
10.24 592
10.26 571
10.28 593
10.3 591
10.32 604
10.34 581
10.36 612
10.38 554
10.4 578
10.42 588
10.44 592
10.46 635
10.48 596
10.5 574
10.52 581
10.54 608
10.56 596
10.58 623
10.6 620
10.62 576
10.64 647
10.66 649
10.68 614
10.7 694
10.72 688
10.74 759
10.76 750
10.78 813
10.8 861
10.82 805
10.84 797
10.86 783
10.88 771
10.9 689
10.92 669
10.94 681
10.96 645
10.98 647
11 619
11.02 614
11.04 659
11.06 606
11.08 606
11.1 627
11.12 621
11.14 569
11.16 584
11.18 575
11.2 597
11.22 568
11.24 565
11.26 574
11.28 546
11.3 587
11.32 587
11.34 564
11.36 569
11.38 578
11.4 555
11.42 576
11.44 586
11.46 566
11.48 599
11.5 559
11.52 598
11.54 565
11.56 571
11.58 601
11.6 555
11.62 615
11.64 567
11.66 563
11.68 548
11.7 580
11.72 580
11.74 544
11.76 569
11.78 583
11.8 558
11.82 558
11.84 563
11.86 573
11.88 539
11.9 570
11.92 551
11.94 547
11.96 576
11.98 619
12 583
12.02 591
12.04 647
12.06 561
12.08 608
12.1 620
12.12 560
12.14 613
12.16 578
12.18 568
12.2 579
12.22 623
12.24 622
12.26 601
12.28 631
12.3 662
12.32 597
12.34 635
12.36 635
12.38 560
12.4 590
12.42 604
12.44 599
12.46 585
12.48 601
12.5 609
12.52 571
12.54 595
12.56 541
12.58 566
12.6 630
12.62 541
12.64 607
12.66 582
12.68 610
12.7 609
12.72 592
12.74 596
12.76 569
12.78 612
12.8 581
12.82 616
12.84 590
12.86 596
12.88 614
12.9 590
12.92 611
12.94 598
12.96 592
12.98 541
13 647
13.02 599
13.04 620
13.06 604
13.08 599
13.1 564
13.12 649
13.14 603
13.16 651
13.18 576
13.2 592
13.22 636
13.24 615
13.26 601
13.28 632
13.3 654
13.32 657
13.34 608
13.36 643
13.38 588
13.4 594
13.42 667
13.44 614
13.46 617
13.48 636
13.5 630
13.52 639
13.54 650
13.56 636
13.58 642
13.6 646
13.62 618
13.64 634
13.66 643
13.68 632
13.7 619
13.72 639
13.74 639
13.76 634
13.78 657
13.8 590
13.82 649
13.84 681
13.86 675
13.88 642
13.9 669
13.92 633
13.94 670
13.96 635
13.98 639
14 652
14.02 614
14.04 620
14.06 643
14.08 653
14.1 622
14.12 670
14.14 672
14.16 661
14.18 674
14.2 631
14.22 627
14.24 651
14.26 649
14.28 717
14.3 707
14.32 685
14.34 691
14.36 696
14.38 659
14.4 675
14.42 698
14.44 680
14.46 651
14.48 668
14.5 641
14.52 627
14.54 661
14.56 628
14.58 684
14.6 669
14.62 647
14.64 628
14.66 639
14.68 680
14.7 662
14.72 705
14.74 680
14.76 672
14.78 683
14.8 680
14.82 694
14.84 687
14.86 674
14.88 697
14.9 709
14.92 662
14.94 691
14.96 654
14.98 691
15 652
15.02 696
15.04 707
15.06 683
15.08 682
15.1 674
15.12 681
15.14 699
15.16 708
15.18 685
15.2 685
15.22 685
15.24 737
15.26 747
15.28 737
15.3 725
15.32 727
15.34 742
15.36 755
15.38 748
15.4 733
15.42 741
15.44 714
15.46 788
15.48 727
15.5 707
15.52 728
15.54 689
15.56 743
15.58 748
15.6 744
15.62 741
15.64 670
15.66 675
15.68 744
15.7 721
15.72 732
15.74 710
15.76 734
15.78 716
15.8 763
15.82 757
15.84 732
15.86 777
15.88 746
15.9 745
15.92 710
15.94 733
15.96 690
15.98 760
16 755
16.02 747
16.04 742
16.06 776
16.08 762
16.1 763
16.12 750
16.14 735
16.16 788
16.18 753
16.2 764
16.22 768
16.24 786
16.26 729
16.28 753
16.3 775
16.32 740
16.34 809
16.36 757
16.38 778
16.4 825
16.42 784
16.44 822
16.46 761
16.48 792
16.5 840
16.52 866
16.54 834
16.56 863
16.58 822
16.6 821
16.62 812
16.64 821
16.66 909
16.68 846
16.7 833
16.72 910
16.74 938
16.76 885
16.78 936
16.8 921
16.82 957
16.84 994
16.86 1035
16.88 1094
16.9 1239
16.92 1401
16.94 1624
16.96 1980
16.98 2347
17 2909
17.02 3941
17.04 5006
17.06 5675
17.08 5872
17.1 4382
17.12 3189
17.14 2113
17.16 1298
17.18 1038
17.2 1046
17.22 1051
17.24 945
17.26 938
17.28 955
17.3 924
17.32 939
17.34 942
17.36 945
17.38 921
17.4 981
17.42 924
17.44 935
17.46 998
17.48 942
17.5 959
17.52 994
17.54 937
17.56 969
17.58 948
17.6 971
17.62 992
17.64 975
17.66 953
17.68 973
17.7 991
17.72 914
17.74 915
17.76 954
17.78 966
17.8 911
17.82 966
17.84 942
17.86 890
17.88 951
17.9 1005
17.92 977
17.94 951
17.96 962
17.98 996
18 1007
18.02 974
18.04 990
18.06 951
18.08 998
18.1 1050
18.12 1020
18.14 975
18.16 1032
18.18 1026
18.2 993
18.22 1028
18.24 1011
18.26 981
18.28 994
18.3 983
18.32 972
18.34 970
18.36 988
18.38 1003
18.4 1015
18.42 998
18.44 967
18.46 1072
18.48 1041
18.5 1038
18.52 1055
18.54 1039
18.56 1042
18.58 993
18.6 1090
18.62 1141
18.64 1086
18.66 1075
18.68 1041
18.7 1069
18.72 1124
18.74 1159
18.76 1043
18.78 1098
18.8 1056
18.82 1129
18.84 1102
18.86 1058
18.88 1072
18.9 1076
18.92 1098
18.94 1079
18.96 1104
18.98 1118
19 1145
19.02 1078
19.04 1077
19.06 1130
19.08 1117
19.1 1117
19.12 1162
19.14 1152
19.16 1182
19.18 1086
19.2 1120
19.22 1070
19.24 1105
19.26 1170
19.28 1157
19.3 1165
19.32 1128
19.34 1196
19.36 1153
19.38 1206
19.4 1284
19.42 1190
19.44 1255
19.46 1255
19.48 1242
19.5 1322
19.52 1299
19.54 1302
19.56 1260
19.58 1293
19.6 1254
19.62 1258
19.64 1198
19.66 1241
19.68 1138
19.7 1262
19.72 1244
19.74 1247
19.76 1194
19.78 1299
19.8 1247
19.82 1264
19.84 1248
19.86 1220
19.88 1223
19.9 1194
19.92 1228
19.94 1265
19.96 1228
19.98 1255
20 1261