File: xrd-UiO-67/pxrddata/37-11.ASC
3 2400
3.02 2143
3.04 2049
3.06 1973
3.08 1804
3.1 1778
3.12 1742
3.14 1628
3.16 1731
3.18 1636
3.2 1636
3.22 1617
3.24 1639
3.26 1546
3.28 1546
3.3 1588
3.32 1522
3.34 1601
3.36 1518
3.38 1461
3.4 1481
3.42 1400
3.44 1472
3.46 1465
3.48 1472
3.5 1430
3.52 1461
3.54 1406
3.56 1349
3.58 1413
3.6 1370
3.62 1352
3.64 1306
3.66 1370
3.68 1324
3.7 1345
3.72 1338
3.74 1323
3.76 1296
3.78 1253
3.8 1328
3.82 1334
3.84 1340
3.86 1261
3.88 1311
3.9 1298
3.92 1261
3.94 1341
3.96 1324
3.98 1278
4 1241
4.02 1290
4.04 1246
4.06 1198
4.08 1199
4.1 1241
4.12 1225
4.14 1184
4.16 1184
4.18 1172
4.2 1175
4.22 1141
4.24 1142
4.26 1241
4.28 1165
4.3 1141
4.32 1150
4.34 1139
4.36 1162
4.38 1160
4.4 1186
4.42 1112
4.44 1106
4.46 1059
4.48 1073
4.5 1208
4.52 1120
4.54 1143
4.56 1118
4.58 1162
4.6 1058
4.62 1117
4.64 1150
4.66 1119
4.68 1081
4.7 1098
4.72 1045
4.74 1128
4.76 1135
4.78 1083
4.8 1118
4.82 1161
4.84 1064
4.86 1141
4.88 1096
4.9 1061
4.92 1131
4.94 1046
4.96 1108
4.98 1150
5 1058
5.02 1089
5.04 1018
5.06 1165
5.08 1088
5.1 1072
5.12 1111
5.14 1082
5.16 1112
5.18 1083
5.2 1092
5.22 1092
5.24 1142
5.26 1180
5.28 1205
5.3 1170
5.32 1226
5.34 1266
5.36 1369
5.38 1435
5.4 1597
5.42 1639
5.44 1406
5.46 1250
5.48 1156
5.5 1140
5.52 1166
5.54 1140
5.56 1141
5.58 1139
5.6 1143
5.62 1172
5.64 1058
5.66 1134
5.68 1183
5.7 1216
5.72 1146
5.74 1187
5.76 1175
5.78 1158
5.8 1006
5.82 974
5.84 934
5.86 869
5.88 819
5.9 837
5.92 795
5.94 851
5.96 814
5.98 769
6 828
6.02 727
6.04 791
6.06 791
6.08 791
6.1 814
6.12 774
6.14 694
6.16 768
6.18 800
6.2 773
6.22 686
6.24 706
6.26 739
6.28 723
6.3 735
6.32 706
6.34 681
6.36 737
6.38 720
6.4 682
6.42 755
6.44 691
6.46 715
6.48 695
6.5 686
6.52 720
6.54 738
6.56 723
6.58 737
6.6 706
6.62 695
6.64 687
6.66 698
6.68 702
6.7 712
6.72 736
6.74 732
6.76 697
6.78 676
6.8 660
6.82 650
6.84 653
6.86 665
6.88 644
6.9 687
6.92 676
6.94 664
6.96 633
6.98 677
7 648
7.02 651
7.04 689
7.06 636
7.08 598
7.1 656
7.12 662
7.14 622
7.16 632
7.18 619
7.2 673
7.22 606
7.24 615
7.26 636
7.28 655
7.3 682
7.32 626
7.34 704
7.36 653
7.38 638
7.4 648
7.42 634
7.44 622
7.46 635
7.48 631
7.5 629
7.52 605
7.54 634
7.56 635
7.58 624
7.6 643
7.62 675
7.64 636
7.66 604
7.68 630
7.7 624
7.72 614
7.74 601
7.76 628
7.78 612
7.8 601
7.82 600
7.84 574
7.86 628
7.88 639
7.9 587
7.92 576
7.94 643
7.96 583
7.98 594
8 592
8.02 613
8.04 576
8.06 581
8.08 603
8.1 662
8.12 627
8.14 589
8.16 600
8.18 587
8.2 621
8.22 562
8.24 585
8.26 609
8.28 646
8.3 624
8.32 626
8.34 634
8.36 616
8.38 589
8.4 613
8.42 605
8.44 576
8.46 596
8.48 644
8.5 623
8.52 598
8.54 599
8.56 568
8.58 569
8.6 587
8.62 589
8.64 566
8.66 659
8.68 598
8.7 621
8.72 604
8.74 606
8.76 636
8.78 651
8.8 614
8.82 580
8.84 607
8.86 618
8.88 578
8.9 596
8.92 584
8.94 625
8.96 615
8.98 634
9 599
9.02 630
9.04 624
9.06 629
9.08 638
9.1 651
9.12 625
9.14 684
9.16 614
9.18 637
9.2 672
9.22 700
9.24 697
9.26 675
9.28 768
9.3 886
9.32 881
9.34 885
9.36 685
9.38 635
9.4 586
9.42 573
9.44 588
9.46 616
9.48 557
9.5 581
9.52 605
9.54 615
9.56 558
9.58 589
9.6 600
9.62 609
9.64 578
9.66 595
9.68 603
9.7 589
9.72 573
9.74 608
9.76 565
9.78 645
9.8 566
9.82 600
9.84 549
9.86 565
9.88 596
9.9 600
9.92 551
9.94 628
9.96 581
9.98 588
10 567
10.02 565
10.04 569
10.06 559
10.08 558
10.1 632
10.12 584
10.14 612
10.16 646
10.18 585
10.2 595
10.22 612
10.24 590
10.26 628
10.28 601
10.3 599
10.32 584
10.34 557
10.36 589
10.38 578
10.4 549
10.42 588
10.44 588
10.46 556
10.48 589
10.5 576
10.52 561
10.54 580
10.56 590
10.58 594
10.6 567
10.62 593
10.64 573
10.66 623
10.68 607
10.7 608
10.72 603
10.74 660
10.76 599
10.78 648
10.8 625
10.82 601
10.84 642
10.86 601
10.88 639
10.9 640
10.92 641
10.94 664
10.96 640
10.98 618
11 589
11.02 574
11.04 544
11.06 603
11.08 591
11.1 616
11.12 573
11.14 588
11.16 582
11.18 528
11.2 577
11.22 568
11.24 590
11.26 576
11.28 590
11.3 535
11.32 606
11.34 539
11.36 552
11.38 552
11.4 614
11.42 543
11.44 592
11.46 587
11.48 590
11.5 558
11.52 568
11.54 588
11.56 550
11.58 555
11.6 591
11.62 596
11.64 525
11.66 610
11.68 594
11.7 538
11.72 609
11.74 569
11.76 580
11.78 580
11.8 569
11.82 564
11.84 588
11.86 547
11.88 546
11.9 522
11.92 544
11.94 554
11.96 533
11.98 590
12 567
12.02 535
12.04 575
12.06 596
12.08 550
12.1 633
12.12 611
12.14 592
12.16 529
12.18 557
12.2 549
12.22 576
12.24 558
12.26 603
12.28 585
12.3 582
12.32 567
12.34 606
12.36 593
12.38 553
12.4 553
12.42 583
12.44 558
12.46 555
12.48 566
12.5 541
12.52 594
12.54 559
12.56 555
12.58 569
12.6 563
12.62 584
12.64 611
12.66 546
12.68 531
12.7 552
12.72 548
12.74 618
12.76 582
12.78 595
12.8 556
12.82 581
12.84 568
12.86 577
12.88 560
12.9 603
12.92 600
12.94 553
12.96 549
12.98 556
13 541
13.02 585
13.04 579
13.06 602
13.08 581
13.1 612
13.12 593
13.14 563
13.16 573
13.18 573
13.2 608
13.22 620
13.24 598
13.26 623
13.28 592
13.3 557
13.32 589
13.34 572
13.36 575
13.38 577
13.4 565
13.42 625
13.44 612
13.46 593
13.48 574
13.5 568
13.52 612
13.54 558
13.56 600
13.58 631
13.6 638
13.62 589
13.64 611
13.66 581
13.68 565
13.7 582
13.72 621
13.74 622
13.76 579
13.78 599
13.8 604
13.82 622
13.84 569
13.86 582
13.88 585
13.9 572
13.92 613
13.94 598
13.96 603
13.98 664
14 626
14.02 617
14.04 615
14.06 593
14.08 598
14.1 583
14.12 588
14.14 596
14.16 638
14.18 589
14.2 610
14.22 633
14.24 640
14.26 603
14.28 645
14.3 609
14.32 608
14.34 610
14.36 612
14.38 587
14.4 573
14.42 572
14.44 633
14.46 665
14.48 645
14.5 600
14.52 617
14.54 623
14.56 610
14.58 597
14.6 620
14.62 658
14.64 651
14.66 665
14.68 640
14.7 678
14.72 658
14.74 618
14.76 653
14.78 682
14.8 658
14.82 673
14.84 664
14.86 638
14.88 664
14.9 636
14.92 630
14.94 657
14.96 649
14.98 638
15 686
15.02 642
15.04 686
15.06 689
15.08 690
15.1 680
15.12 707
15.14 662
15.16 663
15.18 652
15.2 672
15.22 679
15.24 696
15.26 676
15.28 694
15.3 683
15.32 708
15.34 685
15.36 701
15.38 663
15.4 723
15.42 656
15.44 680
15.46 707
15.48 699
15.5 704
15.52 678
15.54 681
15.56 666
15.58 719
15.6 765
15.62 683
15.64 697
15.66 678
15.68 709
15.7 684
15.72 692
15.74 744
15.76 698
15.78 683
15.8 702
15.82 676
15.84 678
15.86 726
15.88 726
15.9 719
15.92 697
15.94 708
15.96 739
15.98 734
16 728
16.02 713
16.04 755
16.06 716
16.08 776
16.1 765
16.12 748
16.14 686
16.16 793
16.18 736
16.2 733
16.22 751
16.24 740
16.26 757
16.28 750
16.3 785
16.32 743
16.34 777
16.36 777
16.38 799
16.4 753
16.42 767
16.44 792
16.46 753
16.48 776
16.5 797
16.52 784
16.54 797
16.56 813
16.58 756
16.6 789
16.62 807
16.64 847
16.66 844
16.68 793
16.7 793
16.72 802
16.74 817
16.76 812
16.78 815
16.8 864
16.82 904
16.84 955
16.86 1003
16.88 922
16.9 970
16.92 1038
16.94 1156
16.96 1569
16.98 1967
17 1847
17.02 1727
17.04 1248
17.06 1084
17.08 909
17.1 839
17.12 858
17.14 839
17.16 835
17.18 858
17.2 837
17.22 892
17.24 832
17.26 852
17.28 843
17.3 886
17.32 896
17.34 861
17.36 871
17.38 830
17.4 859
17.42 883
17.44 913
17.46 897
17.48 835
17.5 896
17.52 882
17.54 929
17.56 910
17.58 887
17.6 904
17.62 854
17.64 939
17.66 914
17.68 883
17.7 924
17.72 911
17.74 878
17.76 914
17.78 842
17.8 949
17.82 921
17.84 904
17.86 877
17.88 900
17.9 917
17.92 944
17.94 963
17.96 921
17.98 951
18 900
18.02 942
18.04 905
18.06 919
18.08 925
18.1 938
18.12 962
18.14 933
18.16 1007
18.18 982
18.2 943
18.22 933
18.24 949
18.26 947
18.28 900
18.3 996
18.32 964
18.34 957
18.36 954
18.38 978
18.4 1054
18.42 972
18.44 943
18.46 1026
18.48 975
18.5 1017
18.52 1037
18.54 974
18.56 993
18.58 1029
18.6 1016
18.62 1011
18.64 1034
18.66 1026
18.68 1047
18.7 1022
18.72 1026
18.74 1093
18.76 1049
18.78 1053
18.8 1020
18.82 1066
18.84 1046
18.86 1045
18.88 1052
18.9 1049
18.92 1021
18.94 1036
18.96 1045
18.98 1070
19 1092
19.02 1076
19.04 1063
19.06 1083
19.08 1083
19.1 1060
19.12 1091
19.14 1055
19.16 1100
19.18 1111
19.2 1067
19.22 1077
19.24 1095
19.26 1085
19.28 1044
19.3 1050
19.32 1092
19.34 1127
19.36 1172
19.38 1188
19.4 1143
19.42 1160
19.44 1134
19.46 1145
19.48 1193
19.5 1158
19.52 1119
19.54 1160
19.56 1156
19.58 1096
19.6 1164
19.62 1171
19.64 1166
19.66 1150
19.68 1109
19.7 1165
19.72 1163
19.74 1194
19.76 1152
19.78 1153
19.8 1136
19.82 1213
19.84 1180
19.86 1152
19.88 1147
19.9 1185
19.92 1203
19.94 1166
19.96 1203
19.98 1241
20 1175