File: xrd-UiO-67/pxrddata/37-14.ASC
3 2266
3.02 2112
3.04 2022
3.06 1865
3.08 1813
3.1 1718
3.12 1624
3.14 1647
3.16 1644
3.18 1544
3.2 1580
3.22 1530
3.24 1601
3.26 1514
3.28 1527
3.3 1446
3.32 1532
3.34 1447
3.36 1387
3.38 1377
3.4 1411
3.42 1415
3.44 1422
3.46 1432
3.48 1336
3.5 1346
3.52 1299
3.54 1281
3.56 1299
3.58 1287
3.6 1316
3.62 1310
3.64 1246
3.66 1254
3.68 1247
3.7 1213
3.72 1231
3.74 1191
3.76 1167
3.78 1153
3.8 1179
3.82 1237
3.84 1182
3.86 1192
3.88 1124
3.9 1116
3.92 1131
3.94 1078
3.96 1042
3.98 1129
4 1107
4.02 1085
4.04 1120
4.06 1024
4.08 1049
4.1 1061
4.12 1055
4.14 1024
4.16 1058
4.18 982
4.2 1042
4.22 1014
4.24 1044
4.26 989
4.28 1043
4.3 962
4.32 1047
4.34 997
4.36 943
4.38 990
4.4 953
4.42 932
4.44 1007
4.46 1035
4.48 1031
4.5 992
4.52 986
4.54 948
4.56 962
4.58 924
4.6 964
4.62 925
4.64 945
4.66 907
4.68 953
4.7 936
4.72 893
4.74 948
4.76 950
4.78 934
4.8 902
4.82 933
4.84 962
4.86 938
4.88 943
4.9 955
4.92 905
4.94 862
4.96 922
4.98 919
5 949
5.02 954
5.04 912
5.06 926
5.08 869
5.1 909
5.12 851
5.14 880
5.16 897
5.18 883
5.2 974
5.22 887
5.24 899
5.26 867
5.28 932
5.3 878
5.32 907
5.34 922
5.36 922
5.38 976
5.4 888
5.42 972
5.44 998
5.46 991
5.48 1015
5.5 991
5.52 961
5.54 914
5.56 889
5.58 872
5.6 919
5.62 838
5.64 874
5.66 787
5.68 844
5.7 803
5.72 821
5.74 837
5.76 775
5.78 770
5.8 832
5.82 766
5.84 731
5.86 725
5.88 789
5.9 767
5.92 721
5.94 722
5.96 761
5.98 750
6 750
6.02 760
6.04 709
6.06 737
6.08 761
6.1 716
6.12 707
6.14 737
6.16 743
6.18 690
6.2 678
6.22 688
6.24 713
6.26 716
6.28 712
6.3 650
6.32 650
6.34 698
6.36 664
6.38 657
6.4 641
6.42 671
6.44 677
6.46 659
6.48 637
6.5 646
6.52 715
6.54 632
6.56 699
6.58 679
6.6 620
6.62 633
6.64 679
6.66 629
6.68 694
6.7 659
6.72 639
6.74 678
6.76 631
6.78 674
6.8 682
6.82 612
6.84 615
6.86 618
6.88 643
6.9 605
6.92 701
6.94 616
6.96 630
6.98 643
7 644
7.02 646
7.04 641
7.06 579
7.08 637
7.1 634
7.12 617
7.14 609
7.16 589
7.18 652
7.2 605
7.22 575
7.24 629
7.26 636
7.28 635
7.3 637
7.32 651
7.34 591
7.36 668
7.38 596
7.4 664
7.42 590
7.44 582
7.46 590
7.48 601
7.5 615
7.52 602
7.54 632
7.56 601
7.58 603
7.6 610
7.62 593
7.64 573
7.66 589
7.68 590
7.7 599
7.72 582
7.74 593
7.76 599
7.78 588
7.8 570
7.82 593
7.84 622
7.86 582
7.88 585
7.9 581
7.92 599
7.94 598
7.96 617
7.98 559
8 588
8.02 547
8.04 599
8.06 589
8.08 585
8.1 559
8.12 577
8.14 583
8.16 547
8.18 570
8.2 582
8.22 623
8.24 583
8.26 564
8.28 572
8.3 558
8.32 592
8.34 581
8.36 575
8.38 554
8.4 612
8.42 612
8.44 561
8.46 568
8.48 596
8.5 572
8.52 564
8.54 555
8.56 563
8.58 577
8.6 588
8.62 605
8.64 579
8.66 550
8.68 557
8.7 594
8.72 624
8.74 563
8.76 558
8.78 545
8.8 594
8.82 628
8.84 560
8.86 585
8.88 578
8.9 591
8.92 599
8.94 551
8.96 555
8.98 591
9 580
9.02 612
9.04 573
9.06 596
9.08 590
9.1 545
9.12 573
9.14 608
9.16 571
9.18 560
9.2 543
9.22 556
9.24 582
9.26 576
9.28 589
9.3 593
9.32 610
9.34 573
9.36 605
9.38 616
9.4 663
9.42 675
9.44 665
9.46 555
9.48 587
9.5 591
9.52 636
9.54 581
9.56 614
9.58 581
9.6 567
9.62 579
9.64 571
9.66 568
9.68 573
9.7 545
9.72 573
9.74 578
9.76 564
9.78 574
9.8 539
9.82 604
9.84 564
9.86 606
9.88 553
9.9 575
9.92 584
9.94 540
9.96 496
9.98 596
10 570
10.02 548
10.04 580
10.06 549
10.08 543
10.1 561
10.12 585
10.14 573
10.16 530
10.18 538
10.2 523
10.22 524
10.24 529
10.26 553
10.28 555
10.3 541
10.32 525
10.34 578
10.36 569
10.38 551
10.4 551
10.42 556
10.44 538
10.46 587
10.48 507
10.5 523
10.52 518
10.54 554
10.56 542
10.58 534
10.6 586
10.62 519
10.64 520
10.66 585
10.68 537
10.7 545
10.72 550
10.74 550
10.76 582
10.78 561
10.8 623
10.82 601
10.84 566
10.86 559
10.88 559
10.9 606
10.92 539
10.94 588
10.96 591
10.98 545
11 502
11.02 532
11.04 572
11.06 557
11.08 527
11.1 531
11.12 524
11.14 544
11.16 514
11.18 541
11.2 550
11.22 550
11.24 542
11.26 559
11.28 528
11.3 578
11.32 601
11.34 550
11.36 530
11.38 504
11.4 527
11.42 535
11.44 534
11.46 529
11.48 552
11.5 527
11.52 514
11.54 513
11.56 537
11.58 527
11.6 532
11.62 524
11.64 560
11.66 560
11.68 549
11.7 561
11.72 548
11.74 536
11.76 524
11.78 538
11.8 526
11.82 564
11.84 535
11.86 570
11.88 565
11.9 547
11.92 588
11.94 557
11.96 546
11.98 539
12 559
12.02 557
12.04 603
12.06 536
12.08 556
12.1 540
12.12 572
12.14 519
12.16 527
12.18 528
12.2 580
12.22 564
12.24 542
12.26 556
12.28 597
12.3 590
12.32 568
12.34 585
12.36 559
12.38 606
12.4 560
12.42 580
12.44 538
12.46 589
12.48 572
12.5 606
12.52 592
12.54 580
12.56 587
12.58 595
12.6 598
12.62 590
12.64 595
12.66 573
12.68 570
12.7 543
12.72 582
12.74 587
12.76 557
12.78 525
12.8 548
12.82 538
12.84 586
12.86 610
12.88 582
12.9 561
12.92 593
12.94 631
12.96 572
12.98 548
13 575
13.02 576
13.04 597
13.06 510
13.08 589
13.1 599
13.12 599
13.14 577
13.16 587
13.18 632
13.2 608
13.22 589
13.24 620
13.26 590
13.28 577
13.3 610
13.32 606
13.34 595
13.36 568
13.38 610
13.4 626
13.42 594
13.44 563
13.46 541
13.48 583
13.5 575
13.52 630
13.54 562
13.56 603
13.58 639
13.6 564
13.62 633
13.64 578
13.66 585
13.68 657
13.7 656
13.72 616
13.74 592
13.76 610
13.78 639
13.8 593
13.82 583
13.84 619
13.86 612
13.88 597
13.9 594
13.92 622
13.94 625
13.96 631
13.98 607
14 642
14.02 671
14.04 620
14.06 629
14.08 663
14.1 634
14.12 694
14.14 618
14.16 624
14.18 641
14.2 627
14.22 666
14.24 656
14.26 629
14.28 671
14.3 620
14.32 631
14.34 641
14.36 611
14.38 649
14.4 671
14.42 606
14.44 660
14.46 647
14.48 677
14.5 682
14.52 629
14.54 557
14.56 676
14.58 650
14.6 611
14.62 628
14.64 677
14.66 626
14.68 628
14.7 651
14.72 615
14.74 637
14.76 673
14.78 676
14.8 649
14.82 685
14.84 721
14.86 681
14.88 669
14.9 680
14.92 669
14.94 639
14.96 655
14.98 688
15 708
15.02 650
15.04 657
15.06 675
15.08 726
15.1 707
15.12 716
15.14 676
15.16 702
15.18 705
15.2 698
15.22 684
15.24 736
15.26 680
15.28 688
15.3 719
15.32 681
15.34 696
15.36 732
15.38 713
15.4 690
15.42 704
15.44 745
15.46 714
15.48 743
15.5 702
15.52 674
15.54 705
15.56 757
15.58 756
15.6 733
15.62 725
15.64 716
15.66 726
15.68 717
15.7 725
15.72 687
15.74 766
15.76 714
15.78 713
15.8 722
15.82 697
15.84 736
15.86 747
15.88 735
15.9 803
15.92 774
15.94 716
15.96 726
15.98 769
16 717
16.02 770
16.04 735
16.06 748
16.08 794
16.1 758
16.12 737
16.14 754
16.16 817
16.18 801
16.2 812
16.22 776
16.24 776
16.26 833
16.28 752
16.3 795
16.32 782
16.34 790
16.36 768
16.38 837
16.4 817
16.42 745
16.44 826
16.46 807
16.48 811
16.5 798
16.52 863
16.54 844
16.56 784
16.58 864
16.6 822
16.62 836
16.64 808
16.66 912
16.68 864
16.7 834
16.72 887
16.74 873
16.76 837
16.78 890
16.8 888
16.82 872
16.84 880
16.86 961
16.88 916
16.9 897
16.92 890
16.94 1032
16.96 1043
16.98 1138
17 1213
17.02 1259
17.04 1308
17.06 1287
17.08 1327
17.1 1196
17.12 1084
17.14 953
17.16 925
17.18 919
17.2 952
17.22 950
17.24 950
17.26 879
17.28 897
17.3 903
17.32 869
17.34 960
17.36 874
17.38 858
17.4 949
17.42 910
17.44 950
17.46 913
17.48 994
17.5 899
17.52 904
17.54 960
17.56 940
17.58 952
17.6 900
17.62 967
17.64 968
17.66 945
17.68 920
17.7 963
17.72 1009
17.74 971
17.76 983
17.78 990
17.8 935
17.82 955
17.84 974
17.86 958
17.88 1000
17.9 988
17.92 1044
17.94 988
17.96 1010
17.98 975
18 1002
18.02 1014
18.04 1012
18.06 969
18.08 1034
18.1 1002
18.12 1036
18.14 1024
18.16 1011
18.18 1027
18.2 994
18.22 1064
18.24 1027
18.26 1047
18.28 1067
18.3 1060
18.32 1035
18.34 1007
18.36 1056
18.38 999
18.4 1026
18.42 1004
18.44 1073
18.46 1058
18.48 1068
18.5 1070
18.52 1022
18.54 1062
18.56 1093
18.58 1100
18.6 1116
18.62 1091
18.64 1071
18.66 1085
18.68 1099
18.7 1127
18.72 1104
18.74 1064
18.76 1067
18.78 1200
18.8 1118
18.82 1108
18.84 1119
18.86 1186
18.88 1067
18.9 1092
18.92 1147
18.94 1077
18.96 1128
18.98 1112
19 1140
19.02 1137
19.04 1216
19.06 1158
19.08 1158
19.1 1165
19.12 1137
19.14 1173
19.16 1254
19.18 1124
19.2 1145
19.22 1113
19.24 1184
19.26 1204
19.28 1153
19.3 1087
19.32 1222
19.34 1203
19.36 1264
19.38 1184
19.4 1280
19.42 1235
19.44 1225
19.46 1226
19.48 1271
19.5 1344
19.52 1220
19.54 1220
19.56 1231
19.58 1263
19.6 1233
19.62 1252
19.64 1235
19.66 1240
19.68 1247
19.7 1238
19.72 1267
19.74 1243
19.76 1246
19.78 1287
19.8 1263
19.82 1205
19.84 1217
19.86 1268
19.88 1337
19.9 1267
19.92 1314
19.94 1298
19.96 1263
19.98 1301
20 1242