File: xrd-UiO-67/pxrddata/37-10.ASC
3 2300
3.02 2199
3.04 1903
3.06 1895
3.08 1818
3.1 1733
3.12 1589
3.14 1600
3.16 1659
3.18 1615
3.2 1501
3.22 1574
3.24 1532
3.26 1530
3.28 1538
3.3 1501
3.32 1515
3.34 1467
3.36 1483
3.38 1387
3.4 1387
3.42 1396
3.44 1429
3.46 1394
3.48 1332
3.5 1351
3.52 1304
3.54 1347
3.56 1304
3.58 1356
3.6 1279
3.62 1288
3.64 1320
3.66 1296
3.68 1306
3.7 1278
3.72 1305
3.74 1284
3.76 1207
3.78 1210
3.8 1211
3.82 1175
3.84 1162
3.86 1147
3.88 1155
3.9 1139
3.92 1166
3.94 1164
3.96 1184
3.98 1142
4 1088
4.02 1096
4.04 1112
4.06 1144
4.08 1102
4.1 1105
4.12 1104
4.14 1062
4.16 1057
4.18 1053
4.2 1079
4.22 1076
4.24 1035
4.26 1064
4.28 1016
4.3 1046
4.32 992
4.34 1019
4.36 1001
4.38 1028
4.4 1000
4.42 999
4.44 931
4.46 963
4.48 982
4.5 997
4.52 1002
4.54 985
4.56 965
4.58 944
4.6 939
4.62 956
4.64 919
4.66 976
4.68 990
4.7 975
4.72 970
4.74 944
4.76 976
4.78 921
4.8 928
4.82 864
4.84 905
4.86 970
4.88 929
4.9 919
4.92 955
4.94 927
4.96 895
4.98 889
5 978
5.02 923
5.04 898
5.06 872
5.08 880
5.1 893
5.12 921
5.14 893
5.16 895
5.18 880
5.2 877
5.22 860
5.24 872
5.26 900
5.28 885
5.3 873
5.32 877
5.34 956
5.36 914
5.38 925
5.4 846
5.42 889
5.44 831
5.46 899
5.48 846
5.5 909
5.52 846
5.54 855
5.56 852
5.58 862
5.6 887
5.62 892
5.64 956
5.66 850
5.68 893
5.7 934
5.72 835
5.74 914
5.76 935
5.78 856
5.8 909
5.82 886
5.84 883
5.86 850
5.88 890
5.9 835
5.92 870
5.94 902
5.96 929
5.98 891
6 906
6.02 954
6.04 973
6.06 956
6.08 905
6.1 945
6.12 928
6.14 946
6.16 940
6.18 931
6.2 934
6.22 944
6.24 894
6.26 929
6.28 948
6.3 919
6.32 932
6.34 914
6.36 984
6.38 898
6.4 955
6.42 987
6.44 985
6.46 915
6.48 983
6.5 987
6.52 967
6.54 1005
6.56 969
6.58 1014
6.6 1026
6.62 978
6.64 982
6.66 960
6.68 972
6.7 1019
6.72 957
6.74 944
6.76 949
6.78 1017
6.8 972
6.82 922
6.84 891
6.86 964
6.88 971
6.9 917
6.92 995
6.94 941
6.96 879
6.98 952
7 948
7.02 940
7.04 930
7.06 985
7.08 935
7.1 964
7.12 910
7.14 905
7.16 922
7.18 946
7.2 989
7.22 898
7.24 908
7.26 966
7.28 968
7.3 874
7.32 910
7.34 940
7.36 967
7.38 957
7.4 941
7.42 917
7.44 974
7.46 944
7.48 949
7.5 998
7.52 981
7.54 987
7.56 1001
7.58 979
7.6 1036
7.62 1074
7.64 1062
7.66 1051
7.68 1086
7.7 1044
7.72 1072
7.74 1151
7.76 1185
7.78 1145
7.8 1205
7.82 1316
7.84 1220
7.86 1335
7.88 1322
7.9 1277
7.92 1381
7.94 1353
7.96 1369
7.98 1325
8 1326
8.02 1356
8.04 1292
8.06 1294
8.08 1330
8.1 1345
8.12 1314
8.14 1322
8.16 1279
8.18 1334
8.2 1374
8.22 1355
8.24 1405
8.26 1448
8.28 1469
8.3 1487
8.32 1556
8.34 1608
8.36 1599
8.38 1597
8.4 1659
8.42 1691
8.44 1659
8.46 1800
8.48 1728
8.5 1812
8.52 1952
8.54 2008
8.56 2101
8.58 2116
8.6 2201
8.62 2303
8.64 2384
8.66 2530
8.68 2663
8.7 2830
8.72 2916
8.74 3080
8.76 3240
8.78 3533
8.8 3866
8.82 4046
8.84 4265
8.86 4585
8.88 4877
8.9 5137
8.92 5500
8.94 5765
8.96 5964
8.98 6148
9 6307
9.02 6156
9.04 6049
9.06 5827
9.08 5723
9.1 5315
9.12 4924
9.14 4728
9.16 4617
9.18 4331
9.2 4230
9.22 4066
9.24 3897
9.26 3908
9.28 3812
9.3 3729
9.32 3529
9.34 3429
9.36 3248
9.38 3117
9.4 3024
9.42 2864
9.44 2827
9.46 2694
9.48 2670
9.5 2618
9.52 2669
9.54 2617
9.56 2621
9.58 2614
9.6 2689
9.62 2748
9.64 2821
9.66 2962
9.68 3116
9.7 3205
9.72 3423
9.74 3587
9.76 3688
9.78 4148
9.8 4472
9.82 4779
9.84 5062
9.86 5672
9.88 6140
9.9 6598
9.92 7328
9.94 7673
9.96 8013
9.98 7731
10 7064
10.02 6247
10.04 5161
10.06 4153
10.08 3429
10.1 3003
10.12 2512
10.14 2285
10.16 2124
10.18 1922
10.2 1831
10.22 1858
10.24 1807
10.26 1635
10.28 1638
10.3 1608
10.32 1597
10.34 1549
10.36 1597
10.38 1455
10.4 1558
10.42 1488
10.44 1482
10.46 1506
10.48 1542
10.5 1491
10.52 1404
10.54 1499
10.56 1456
10.58 1509
10.6 1461
10.62 1494
10.64 1476
10.66 1429
10.68 1524
10.7 1540
10.72 1572
10.74 1545
10.76 1562
10.78 1492
10.8 1518
10.82 1486
10.84 1620
10.86 1528
10.88 1570
10.9 1546
10.92 1501
10.94 1589
10.96 1508
10.98 1508
11 1455
11.02 1467
11.04 1406
11.06 1399
11.08 1336
11.1 1311
11.12 1262
11.14 1204
11.16 1144
11.18 1126
11.2 1076
11.22 1143
11.24 1074
11.26 1052
11.28 1047
11.3 1021
11.32 1040
11.34 989
11.36 1053
11.38 1024
11.4 999
11.42 983
11.44 947
11.46 972
11.48 965
11.5 957
11.52 938
11.54 902
11.56 951
11.58 869
11.6 955
11.62 946
11.64 898
11.66 919
11.68 908
11.7 891
11.72 916
11.74 876
11.76 876
11.78 896
11.8 899
11.82 875
11.84 879
11.86 890
11.88 902
11.9 922
11.92 904
11.94 899
11.96 918
11.98 878
12 845
12.02 854
12.04 878
12.06 877
12.08 904
12.1 938
12.12 954
12.14 895
12.16 905
12.18 945
12.2 915
12.22 923
12.24 989
12.26 997
12.28 1022
12.3 1052
12.32 1049
12.34 1101
12.36 1123
12.38 1189
12.4 1192
12.42 1217
12.44 1235
12.46 1339
12.48 1428
12.5 1475
12.52 1547
12.54 1657
12.56 1771
12.58 1912
12.6 2066
12.62 2203
12.64 2259
12.66 2512
12.68 2696
12.7 2814
12.72 2818
12.74 2742
12.76 2455
12.78 2204
12.8 1843
12.82 1536
12.84 1448
12.86 1225
12.88 1196
12.9 1166
12.92 1175
12.94 1064
12.96 1141
12.98 1024
13 1056
13.02 1001
13.04 934
13.06 950
13.08 994
13.1 984
13.12 954
13.14 964
13.16 986
13.18 992
13.2 929
13.22 944
13.24 946
13.26 936
13.28 957
13.3 912
13.32 968
13.34 967
13.36 924
13.38 937
13.4 903
13.42 916
13.44 932
13.46 910
13.48 887
13.5 965
13.52 974
13.54 921
13.56 919
13.58 913
13.6 904
13.62 910
13.64 891
13.66 872
13.68 928
13.7 895
13.72 890
13.74 915
13.76 884
13.78 848
13.8 807
13.82 858
13.84 904
13.86 859
13.88 878
13.9 847
13.92 816
13.94 876
13.96 871
13.98 857
14 865
14.02 886
14.04 892
14.06 881
14.08 927
14.1 864
14.12 909
14.14 906
14.16 913
14.18 911
14.2 961
14.22 962
14.24 952
14.26 947
14.28 969
14.3 993
14.32 965
14.34 956
14.36 977
14.38 1043
14.4 1029
14.42 1001
14.44 1071
14.46 1049
14.48 1028
14.5 1007
14.52 995
14.54 998
14.56 892
14.58 970
14.6 942
14.62 954
14.64 865
14.66 896
14.68 849
14.7 873
14.72 884
14.74 808
14.76 816
14.78 815
14.8 852
14.82 775
14.84 813
14.86 857
14.88 791
14.9 822
14.92 810
14.94 840
14.96 844
14.98 823
15 755
15.02 800
15.04 803
15.06 802
15.08 815
15.1 839
15.12 824
15.14 759
15.16 788
15.18 840
15.2 734
15.22 792
15.24 847
15.26 817
15.28 807
15.3 795
15.32 845
15.34 798
15.36 789
15.38 775
15.4 833
15.42 797
15.44 832
15.46 797
15.48 782
15.5 775
15.52 786
15.54 802
15.56 785
15.58 835
15.6 784
15.62 825
15.64 786
15.66 834
15.68 815
15.7 797
15.72 772
15.74 790
15.76 844
15.78 771
15.8 830
15.82 822
15.84 820
15.86 805
15.88 840
15.9 818
15.92 795
15.94 767
15.96 771
15.98 795
16 838
16.02 785
16.04 813
16.06 799
16.08 797
16.1 783
16.12 824
16.14 832
16.16 778
16.18 778
16.2 792
16.22 805
16.24 832
16.26 786
16.28 792
16.3 833
16.32 788
16.34 805
16.36 858
16.38 773
16.4 774
16.42 767
16.44 816
16.46 811
16.48 820
16.5 833
16.52 830
16.54 843
16.56 839
16.58 844
16.6 815
16.62 828
16.64 797
16.66 820
16.68 858
16.7 842
16.72 874
16.74 828
16.76 885
16.78 877
16.8 910
16.82 914
16.84 923
16.86 881
16.88 917
16.9 938
16.92 1014
16.94 1011
16.96 1132
16.98 1121
17 1224
17.02 1222
17.04 1100
17.06 1054
17.08 1035
17.1 924
17.12 879
17.14 860
17.16 849
17.18 896
17.2 883
17.22 826
17.24 855
17.26 851
17.28 843
17.3 854
17.32 860
17.34 846
17.36 856
17.38 858
17.4 857
17.42 824
17.44 856
17.46 849
17.48 879
17.5 811
17.52 880
17.54 837
17.56 892
17.58 920
17.6 878
17.62 891
17.64 891
17.66 902
17.68 930
17.7 912
17.72 903
17.74 946
17.76 971
17.78 976
17.8 966
17.82 995
17.84 981
17.86 973
17.88 1003
17.9 962
17.92 940
17.94 1004
17.96 896
17.98 1001
18 1006
18.02 999
18.04 1017
18.06 1064
18.08 1019
18.1 988
18.12 1029
18.14 1094
18.16 1014
18.18 1075
18.2 1058
18.22 1139
18.24 1075
18.26 1129
18.28 1063
18.3 1080
18.32 1096
18.34 1072
18.36 1081
18.38 1028
18.4 980
18.42 1020
18.44 1064
18.46 1027
18.48 1050
18.5 1061
18.52 1037
18.54 1060
18.56 1010
18.58 1092
18.6 1082
18.62 1077
18.64 994
18.66 1059
18.68 1037
18.7 1014
18.72 931
18.74 1033
18.76 1005
18.78 936
18.8 950
18.82 954
18.84 952
18.86 985
18.88 1024
18.9 939
18.92 1017
18.94 976
18.96 939
18.98 939
19 1020
19.02 1014
19.04 945
19.06 984
19.08 981
19.1 1036
19.12 968
19.14 965
19.16 965
19.18 983
19.2 1008
19.22 1029
19.24 950
19.26 1011
19.28 1035
19.3 988
19.32 999
19.34 1058
19.36 1025
19.38 1018
19.4 996
19.42 1094
19.44 1068
19.46 1015
19.48 1046
19.5 1064
19.52 1062
19.54 1067
19.56 1049
19.58 1082
19.6 1128
19.62 1097
19.64 1143
19.66 1152
19.68 1098
19.7 1183
19.72 1168
19.74 1235
19.76 1301
19.78 1278
19.8 1396
19.82 1435
19.84 1468
19.86 1548
19.88 1692
19.9 1763
19.92 1874
19.94 1937
19.96 1944
19.98 1971
20 1871