File: xrd-UiO-67/pxrddata/37-15.ASC
3 2549
3.02 2480
3.04 2327
3.06 2202
3.08 2134
3.1 2058
3.12 1908
3.14 1911
3.16 1849
3.18 1839
3.2 1803
3.22 1835
3.24 1817
3.26 1786
3.28 1784
3.3 1701
3.32 1794
3.34 1755
3.36 1612
3.38 1659
3.4 1597
3.42 1651
3.44 1539
3.46 1562
3.48 1545
3.5 1596
3.52 1457
3.54 1478
3.56 1505
3.58 1540
3.6 1463
3.62 1546
3.64 1447
3.66 1381
3.68 1446
3.7 1391
3.72 1391
3.74 1360
3.76 1365
3.78 1326
3.8 1326
3.82 1274
3.84 1371
3.86 1332
3.88 1267
3.9 1291
3.92 1254
3.94 1291
3.96 1241
3.98 1235
4 1244
4.02 1214
4.04 1279
4.06 1242
4.08 1170
4.1 1136
4.12 1240
4.14 1156
4.16 1153
4.18 1219
4.2 1157
4.22 1183
4.24 1175
4.26 1118
4.28 1160
4.3 1166
4.32 1127
4.34 1154
4.36 1141
4.38 1085
4.4 1080
4.42 1062
4.44 1042
4.46 1083
4.48 1033
4.5 1100
4.52 1073
4.54 1050
4.56 1101
4.58 1073
4.6 1030
4.62 1058
4.64 1021
4.66 1059
4.68 982
4.7 1013
4.72 1002
4.74 1002
4.76 1017
4.78 1055
4.8 1029
4.82 1019
4.84 1041
4.86 1061
4.88 1004
4.9 942
4.92 995
4.94 1067
4.96 1032
4.98 992
5 972
5.02 1022
5.04 1067
5.06 1030
5.08 1013
5.1 989
5.12 1048
5.14 1010
5.16 1013
5.18 1013
5.2 1014
5.22 1052
5.24 1046
5.26 1116
5.28 1097
5.3 1143
5.32 1167
5.34 1103
5.36 1157
5.38 1221
5.4 1231
5.42 1239
5.44 1258
5.46 1285
5.48 1337
5.5 1310
5.52 1265
5.54 1202
5.56 1147
5.58 1092
5.6 1001
5.62 987
5.64 950
5.66 936
5.68 967
5.7 938
5.72 854
5.74 920
5.76 897
5.78 929
5.8 891
5.82 899
5.84 862
5.86 885
5.88 875
5.9 876
5.92 847
5.94 805
5.96 814
5.98 844
6 832
6.02 810
6.04 853
6.06 773
6.08 822
6.1 849
6.12 804
6.14 791
6.16 763
6.18 807
6.2 785
6.22 817
6.24 798
6.26 792
6.28 768
6.3 771
6.32 749
6.34 792
6.36 753
6.38 757
6.4 733
6.42 725
6.44 734
6.46 789
6.48 722
6.5 727
6.52 778
6.54 765
6.56 746
6.58 722
6.6 710
6.62 734
6.64 750
6.66 759
6.68 708
6.7 767
6.72 688
6.74 749
6.76 712
6.78 717
6.8 678
6.82 699
6.84 713
6.86 755
6.88 723
6.9 745
6.92 701
6.94 711
6.96 730
6.98 678
7 683
7.02 721
7.04 719
7.06 711
7.08 701
7.1 726
7.12 679
7.14 649
7.16 724
7.18 670
7.2 733
7.22 667
7.24 691
7.26 719
7.28 698
7.3 663
7.32 697
7.34 678
7.36 666
7.38 701
7.4 704
7.42 650
7.44 651
7.46 653
7.48 653
7.5 648
7.52 659
7.54 676
7.56 682
7.58 664
7.6 644
7.62 658
7.64 629
7.66 686
7.68 657
7.7 690
7.72 682
7.74 620
7.76 703
7.78 650
7.8 636
7.82 607
7.84 643
7.86 678
7.88 678
7.9 624
7.92 651
7.94 661
7.96 628
7.98 659
8 624
8.02 677
8.04 667
8.06 604
8.08 643
8.1 659
8.12 599
8.14 672
8.16 590
8.18 597
8.2 637
8.22 640
8.24 660
8.26 666
8.28 652
8.3 649
8.32 613
8.34 607
8.36 613
8.38 667
8.4 646
8.42 626
8.44 643
8.46 626
8.48 601
8.5 643
8.52 583
8.54 614
8.56 646
8.58 605
8.6 597
8.62 614
8.64 612
8.66 600
8.68 595
8.7 637
8.72 625
8.74 624
8.76 631
8.78 619
8.8 594
8.82 586
8.84 598
8.86 612
8.88 633
8.9 655
8.92 633
8.94 634
8.96 636
8.98 698
9 566
9.02 664
9.04 633
9.06 616
9.08 644
9.1 669
9.12 621
9.14 618
9.16 619
9.18 628
9.2 660
9.22 702
9.24 680
9.26 746
9.28 677
9.3 669
9.32 676
9.34 682
9.36 730
9.38 728
9.4 759
9.42 740
9.44 709
9.46 767
9.48 731
9.5 702
9.52 699
9.54 690
9.56 598
9.58 665
9.6 605
9.62 626
9.64 614
9.66 596
9.68 651
9.7 559
9.72 584
9.74 608
9.76 606
9.78 590
9.8 584
9.82 595
9.84 596
9.86 602
9.88 623
9.9 621
9.92 593
9.94 568
9.96 597
9.98 640
10 566
10.02 590
10.04 565
10.06 574
10.08 556
10.1 585
10.12 584
10.14 601
10.16 579
10.18 601
10.2 622
10.22 579
10.24 591
10.26 563
10.28 547
10.3 585
10.32 542
10.34 567
10.36 593
10.38 590
10.4 567
10.42 578
10.44 630
10.46 586
10.48 574
10.5 605
10.52 597
10.54 603
10.56 609
10.58 586
10.6 597
10.62 596
10.64 583
10.66 618
10.68 613
10.7 576
10.72 605
10.74 621
10.76 585
10.78 618
10.8 630
10.82 625
10.84 603
10.86 611
10.88 605
10.9 623
10.92 596
10.94 597
10.96 583
10.98 598
11 601
11.02 573
11.04 610
11.06 543
11.08 550
11.1 604
11.12 526
11.14 568
11.16 588
11.18 594
11.2 574
11.22 571
11.24 593
11.26 510
11.28 614
11.3 633
11.32 554
11.34 571
11.36 556
11.38 527
11.4 561
11.42 550
11.44 552
11.46 553
11.48 569
11.5 555
11.52 597
11.54 591
11.56 590
11.58 565
11.6 547
11.62 619
11.64 543
11.66 574
11.68 523
11.7 561
11.72 613
11.74 565
11.76 548
11.78 565
11.8 582
11.82 553
11.84 570
11.86 524
11.88 569
11.9 664
11.92 557
11.94 603
11.96 577
11.98 593
12 579
12.02 559
12.04 535
12.06 593
12.08 580
12.1 599
12.12 580
12.14 573
12.16 599
12.18 609
12.2 624
12.22 607
12.24 548
12.26 579
12.28 599
12.3 560
12.32 578
12.34 578
12.36 587
12.38 575
12.4 606
12.42 531
12.44 591
12.46 570
12.48 601
12.5 626
12.52 569
12.54 575
12.56 590
12.58 554
12.6 621
12.62 600
12.64 600
12.66 600
12.68 560
12.7 622
12.72 591
12.74 582
12.76 596
12.78 619
12.8 574
12.82 621
12.84 591
12.86 586
12.88 665
12.9 629
12.92 588
12.94 582
12.96 616
12.98 588
13 600
13.02 604
13.04 613
13.06 577
13.08 578
13.1 590
13.12 583
13.14 625
13.16 602
13.18 626
13.2 625
13.22 575
13.24 562
13.26 608
13.28 582
13.3 610
13.32 566
13.34 569
13.36 554
13.38 618
13.4 613
13.42 608
13.44 595
13.46 592
13.48 572
13.5 582
13.52 605
13.54 634
13.56 560
13.58 667
13.6 631
13.62 644
13.64 593
13.66 614
13.68 638
13.7 612
13.72 633
13.74 589
13.76 627
13.78 645
13.8 643
13.82 624
13.84 660
13.86 635
13.88 632
13.9 606
13.92 631
13.94 602
13.96 660
13.98 625
14 631
14.02 648
14.04 668
14.06 646
14.08 618
14.1 665
14.12 668
14.14 623
14.16 637
14.18 669
14.2 652
14.22 656
14.24 661
14.26 677
14.28 646
14.3 656
14.32 660
14.34 629
14.36 672
14.38 665
14.4 645
14.42 645
14.44 664
14.46 646
14.48 661
14.5 652
14.52 668
14.54 704
14.56 650
14.58 685
14.6 671
14.62 657
14.64 617
14.66 644
14.68 661
14.7 687
14.72 660
14.74 676
14.76 721
14.78 696
14.8 619
14.82 691
14.84 706
14.86 657
14.88 669
14.9 686
14.92 711
14.94 669
14.96 668
14.98 669
15 710
15.02 710
15.04 719
15.06 673
15.08 691
15.1 685
15.12 711
15.14 691
15.16 689
15.18 680
15.2 698
15.22 707
15.24 697
15.26 684
15.28 700
15.3 744
15.32 687
15.34 692
15.36 726
15.38 733
15.4 675
15.42 685
15.44 681
15.46 726
15.48 737
15.5 755
15.52 761
15.54 730
15.56 709
15.58 745
15.6 716
15.62 743
15.64 745
15.66 691
15.68 728
15.7 742
15.72 757
15.74 700
15.76 682
15.78 721
15.8 722
15.82 707
15.84 745
15.86 757
15.88 758
15.9 726
15.92 747
15.94 757
15.96 798
15.98 762
16 752
16.02 766
16.04 716
16.06 750
16.08 775
16.1 809
16.12 787
16.14 806
16.16 776
16.18 742
16.2 825
16.22 814
16.24 774
16.26 791
16.28 767
16.3 795
16.32 808
16.34 862
16.36 788
16.38 795
16.4 831
16.42 771
16.44 788
16.46 807
16.48 785
16.5 787
16.52 843
16.54 808
16.56 852
16.58 764
16.6 820
16.62 790
16.64 814
16.66 844
16.68 810
16.7 871
16.72 815
16.74 817
16.76 858
16.78 844
16.8 893
16.82 855
16.84 890
16.86 917
16.88 938
16.9 962
16.92 1111
16.94 1074
16.96 1127
16.98 1192
17 1350
17.02 1377
17.04 1430
17.06 1494
17.08 1453
17.1 1337
17.12 1182
17.14 1116
17.16 973
17.18 983
17.2 938
17.22 968
17.24 967
17.26 891
17.28 901
17.3 950
17.32 903
17.34 914
17.36 840
17.38 926
17.4 908
17.42 905
17.44 968
17.46 940
17.48 938
17.5 991
17.52 882
17.54 936
17.56 941
17.58 938
17.6 930
17.62 948
17.64 931
17.66 988
17.68 926
17.7 920
17.72 904
17.74 965
17.76 956
17.78 912
17.8 919
17.82 945
17.84 1023
17.86 946
17.88 950
17.9 919
17.92 976
17.94 1041
17.96 1011
17.98 971
18 970
18.02 954
18.04 975
18.06 958
18.08 1028
18.1 1065
18.12 995
18.14 938
18.16 1030
18.18 969
18.2 976
18.22 994
18.24 1046
18.26 1082
18.28 979
18.3 992
18.32 991
18.34 1047
18.36 1050
18.38 1024
18.4 1027
18.42 1047
18.44 1071
18.46 1063
18.48 986
18.5 1069
18.52 1060
18.54 1033
18.56 1031
18.58 1032
18.6 980
18.62 1079
18.64 1075
18.66 1051
18.68 1113
18.7 1091
18.72 1080
18.74 1074
18.76 1105
18.78 1085
18.8 1095
18.82 1109
18.84 1126
18.86 1021
18.88 1104
18.9 1156
18.92 1107
18.94 1074
18.96 1090
18.98 1091
19 1143
19.02 1131
19.04 1119
19.06 1162
19.08 1140
19.1 1113
19.12 1115
19.14 1107
19.16 1110
19.18 1176
19.2 1152
19.22 1176
19.24 1192
19.26 1223
19.28 1107
19.3 1140
19.32 1174
19.34 1184
19.36 1175
19.38 1252
19.4 1177
19.42 1209
19.44 1181
19.46 1166
19.48 1203
19.5 1197
19.52 1244
19.54 1169
19.56 1267
19.58 1267
19.6 1226
19.62 1211
19.64 1156
19.66 1204
19.68 1208
19.7 1218
19.72 1235
19.74 1258
19.76 1196
19.78 1245
19.8 1225
19.82 1314
19.84 1275
19.86 1201
19.88 1215
19.9 1283
19.92 1264
19.94 1302
19.96 1210
19.98 1296
20 1287