File: xrd-UiO-67/pxrddata/37-16.ASC
3 1961
3.02 1853
3.04 1797
3.06 1642
3.08 1561
3.1 1492
3.12 1509
3.14 1429
3.16 1379
3.18 1397
3.2 1359
3.22 1332
3.24 1290
3.26 1313
3.28 1286
3.3 1279
3.32 1286
3.34 1258
3.36 1247
3.38 1225
3.4 1220
3.42 1252
3.44 1204
3.46 1175
3.48 1175
3.5 1089
3.52 1172
3.54 1108
3.56 1153
3.58 1122
3.6 1065
3.62 1123
3.64 1031
3.66 983
3.68 1004
3.7 1020
3.72 1028
3.74 981
3.76 1067
3.78 932
3.8 966
3.82 996
3.84 994
3.86 912
3.88 940
3.9 960
3.92 928
3.94 951
3.96 936
3.98 913
4 856
4.02 930
4.04 875
4.06 915
4.08 853
4.1 850
4.12 882
4.14 808
4.16 778
4.18 853
4.2 873
4.22 815
4.24 766
4.26 760
4.28 771
4.3 765
4.32 702
4.34 759
4.36 766
4.38 750
4.4 725
4.42 753
4.44 741
4.46 710
4.48 741
4.5 745
4.52 679
4.54 663
4.56 712
4.58 667
4.6 666
4.62 684
4.64 723
4.66 675
4.68 717
4.7 697
4.72 646
4.74 648
4.76 648
4.78 661
4.8 678
4.82 675
4.84 673
4.86 714
4.88 660
4.9 622
4.92 576
4.94 623
4.96 601
4.98 572
5 617
5.02 629
5.04 626
5.06 619
5.08 648
5.1 587
5.12 580
5.14 610
5.16 630
5.18 603
5.2 639
5.22 587
5.24 548
5.26 564
5.28 600
5.3 576
5.32 594
5.34 595
5.36 584
5.38 588
5.4 601
5.42 597
5.44 514
5.46 577
5.48 608
5.5 571
5.52 575
5.54 546
5.56 559
5.58 627
5.6 582
5.62 602
5.64 617
5.66 565
5.68 560
5.7 591
5.72 530
5.74 553
5.76 598
5.78 550
5.8 569
5.82 575
5.84 586
5.86 576
5.88 544
5.9 582
5.92 579
5.94 554
5.96 540
5.98 607
6 574
6.02 532
6.04 585
6.06 574
6.08 582
6.1 558
6.12 530
6.14 501
6.16 517
6.18 560
6.2 540
6.22 543
6.24 545
6.26 549
6.28 536
6.3 570
6.32 537
6.34 561
6.36 542
6.38 524
6.4 538
6.42 551
6.44 528
6.46 516
6.48 576
6.5 541
6.52 529
6.54 506
6.56 532
6.58 512
6.6 536
6.62 549
6.64 508
6.66 523
6.68 511
6.7 561
6.72 535
6.74 501
6.76 541
6.78 514
6.8 518
6.82 534
6.84 534
6.86 532
6.88 541
6.9 520
6.92 568
6.94 560
6.96 497
6.98 504
7 569
7.02 489
7.04 554
7.06 513
7.08 516
7.1 515
7.12 536
7.14 517
7.16 540
7.18 523
7.2 559
7.22 515
7.24 489
7.26 496
7.28 535
7.3 548
7.32 530
7.34 495
7.36 503
7.38 543
7.4 527
7.42 540
7.44 547
7.46 523
7.48 543
7.5 508
7.52 552
7.54 531
7.56 516
7.58 494
7.6 520
7.62 540
7.64 555
7.66 522
7.68 498
7.7 553
7.72 499
7.74 556
7.76 515
7.78 541
7.8 490
7.82 507
7.84 526
7.86 516
7.88 527
7.9 526
7.92 521
7.94 517
7.96 531
7.98 532
8 519
8.02 490
8.04 519
8.06 524
8.08 484
8.1 508
8.12 526
8.14 515
8.16 517
8.18 494
8.2 518
8.22 488
8.24 521
8.26 545
8.28 501
8.3 504
8.32 506
8.34 477
8.36 534
8.38 497
8.4 535
8.42 523
8.44 552
8.46 565
8.48 533
8.5 551
8.52 541
8.54 546
8.56 604
8.58 610
8.6 532
8.62 576
8.64 565
8.66 612
8.68 612
8.7 653
8.72 677
8.74 703
8.76 722
8.78 784
8.8 717
8.82 783
8.84 851
8.86 889
8.88 969
8.9 1062
8.92 1168
8.94 1284
8.96 1486
8.98 1691
9 1858
9.02 1958
9.04 1983
9.06 1887
9.08 1716
9.1 1501
9.12 1221
9.14 1033
9.16 904
9.18 748
9.2 621
9.22 606
9.24 556
9.26 558
9.28 527
9.3 508
9.32 498
9.34 548
9.36 522
9.38 514
9.4 514
9.42 507
9.44 531
9.46 521
9.48 561
9.5 582
9.52 525
9.54 502
9.56 526
9.58 547
9.6 540
9.62 555
9.64 512
9.66 607
9.68 587
9.7 574
9.72 614
9.74 642
9.76 638
9.78 649
9.8 703
9.82 667
9.84 748
9.86 823
9.88 856
9.9 949
9.92 1028
9.94 1137
9.96 1250
9.98 1328
10 1238
10.02 1145
10.04 1091
10.06 946
10.08 840
10.1 726
10.12 634
10.14 572
10.16 515
10.18 511
10.2 511
10.22 530
10.24 501
10.26 488
10.28 503
10.3 464
10.32 495
10.34 462
10.36 483
10.38 466
10.4 490
10.42 473
10.44 459
10.46 505
10.48 458
10.5 458
10.52 470
10.54 470
10.56 476
10.58 492
10.6 497
10.62 467
10.64 462
10.66 421
10.68 496
10.7 461
10.72 508
10.74 473
10.76 477
10.78 458
10.8 511
10.82 458
10.84 451
10.86 476
10.88 447
10.9 508
10.92 481
10.94 457
10.96 444
10.98 502
11 449
11.02 485
11.04 489
11.06 473
11.08 495
11.1 459
11.12 485
11.14 482
11.16 478
11.18 458
11.2 475
11.22 492
11.24 449
11.26 459
11.28 461
11.3 463
11.32 459
11.34 470
11.36 458
11.38 440
11.4 459
11.42 456
11.44 451
11.46 458
11.48 497
11.5 429
11.52 470
11.54 459
11.56 478
11.58 433
11.6 491
11.62 492
11.64 479
11.66 455
11.68 468
11.7 440
11.72 495
11.74 436
11.76 468
11.78 458
11.8 465
11.82 461
11.84 449
11.86 516
11.88 451
11.9 442
11.92 503
11.94 454
11.96 455
11.98 477
12 486
12.02 490
12.04 451
12.06 447
12.08 444
12.1 435
12.12 436
12.14 468
12.16 468
12.18 456
12.2 496
12.22 439
12.24 444
12.26 471
12.28 486
12.3 470
12.32 461
12.34 433
12.36 500
12.38 479
12.4 522
12.42 483
12.44 498
12.46 469
12.48 477
12.5 520
12.52 496
12.54 516
12.56 494
12.58 490
12.6 530
12.62 516
12.64 578
12.66 567
12.68 611
12.7 596
12.72 679
12.74 647
12.76 647
12.78 628
12.8 631
12.82 597
12.84 578
12.86 581
12.88 544
12.9 492
12.92 486
12.94 494
12.96 528
12.98 483
13 500
13.02 513
13.04 504
13.06 521
13.08 503
13.1 472
13.12 472
13.14 513
13.16 512
13.18 540
13.2 556
13.22 558
13.24 573
13.26 580
13.28 590
13.3 564
13.32 666
13.34 656
13.36 715
13.38 788
13.4 837
13.42 852
13.44 902
13.46 891
13.48 801
13.5 817
13.52 783
13.54 670
13.56 601
13.58 607
13.6 546
13.62 563
13.64 550
13.66 529
13.68 495
13.7 511
13.72 520
13.74 515
13.76 514
13.78 522
13.8 464
13.82 486
13.84 495
13.86 508
13.88 502
13.9 505
13.92 511
13.94 510
13.96 481
13.98 475
14 459
14.02 517
14.04 504
14.06 499
14.08 462
14.1 497
14.12 489
14.14 514
14.16 458
14.18 512
14.2 518
14.22 510
14.24 463
14.26 511
14.28 507
14.3 496
14.32 514
14.34 520
14.36 482
14.38 522
14.4 485
14.42 489
14.44 527
14.46 526
14.48 502
14.5 511
14.52 511
14.54 492
14.56 515
14.58 517
14.6 553
14.62 540
14.64 562
14.66 515
14.68 501
14.7 521
14.72 532
14.74 479
14.76 493
14.78 489
14.8 483
14.82 525
14.84 533
14.86 511
14.88 491
14.9 503
14.92 496
14.94 524
14.96 511
14.98 555
15 515
15.02 543
15.04 550
15.06 529
15.08 493
15.1 555
15.12 568
15.14 551
15.16 523
15.18 532
15.2 531
15.22 540
15.24 511
15.26 581
15.28 563
15.3 524
15.32 544
15.34 490
15.36 553
15.38 542
15.4 547
15.42 548
15.44 527
15.46 580
15.48 531
15.5 550
15.52 541
15.54 568
15.56 535
15.58 548
15.6 566
15.62 508
15.64 521
15.66 563
15.68 515
15.7 568
15.72 555
15.74 551
15.76 574
15.78 563
15.8 529
15.82 598
15.84 575
15.86 553
15.88 553
15.9 529
15.92 532
15.94 560
15.96 581
15.98 575
16 604
16.02 575
16.04 550
16.06 569
16.08 576
16.1 582
16.12 568
16.14 594
16.16 574
16.18 563
16.2 581
16.22 544
16.24 595
16.26 571
16.28 606
16.3 576
16.32 558
16.34 532
16.36 578
16.38 597
16.4 563
16.42 583
16.44 594
16.46 619
16.48 632
16.5 589
16.52 594
16.54 614
16.56 611
16.58 650
16.6 670
16.62 629
16.64 646
16.66 614
16.68 598
16.7 639
16.72 655
16.74 631
16.76 683
16.78 720
16.8 712
16.82 738
16.84 753
16.86 723
16.88 821
16.9 900
16.92 924
16.94 984
16.96 1120
16.98 1176
17 1206
17.02 1192
17.04 1169
17.06 1086
17.08 1041
17.1 925
17.12 896
17.14 787
17.16 766
17.18 729
17.2 730
17.22 689
17.24 655
17.26 666
17.28 678
17.3 665
17.32 655
17.34 660
17.36 673
17.38 702
17.4 640
17.42 654
17.44 642
17.46 656
17.48 699
17.5 626
17.52 652
17.54 664
17.56 689
17.58 685
17.6 679
17.62 703
17.64 694
17.66 657
17.68 694
17.7 702
17.72 669
17.74 657
17.76 665
17.78 676
17.8 682
17.82 694
17.84 706
17.86 748
17.88 733
17.9 676
17.92 732
17.94 757
17.96 723
17.98 765
18 757
18.02 721
18.04 769
18.06 697
18.08 752
18.1 735
18.12 697
18.14 723
18.16 733
18.18 710
18.2 739
18.22 731
18.24 732
18.26 746
18.28 723
18.3 734
18.32 720
18.34 708
18.36 713
18.38 716
18.4 722
18.42 754
18.44 756
18.46 781
18.48 793
18.5 793
18.52 804
18.54 824
18.56 787
18.58 799
18.6 774
18.62 779
18.64 719
18.66 762
18.68 778
18.7 766
18.72 780
18.74 728
18.76 764
18.78 774
18.8 733
18.82 740
18.84 747
18.86 795
18.88 760
18.9 763
18.92 767
18.94 760
18.96 753
18.98 796
19 771
19.02 786
19.04 768
19.06 792
19.08 779
19.1 818
19.12 817
19.14 821
19.16 777
19.18 791
19.2 775
19.22 839
19.24 811
19.26 787
19.28 807
19.3 835
19.32 811
19.34 814
19.36 774
19.38 791
19.4 792
19.42 851
19.44 810
19.46 824
19.48 808
19.5 817
19.52 802
19.54 776
19.56 832
19.58 841
19.6 864
19.62 890
19.64 816
19.66 863
19.68 793
19.7 832
19.72 881
19.74 853
19.76 849
19.78 892
19.8 900
19.82 896
19.84 963
19.86 959
19.88 975
19.9 995
19.92 1052
19.94 1041
19.96 1033
19.98 1071
20 1118