File: xrd-UiO-67/pxrddata/37-2.ASC
3 3146
3.02 2882
3.04 2758
3.06 2642
3.08 2534
3.1 2515
3.12 2453
3.14 2374
3.16 2378
3.18 2295
3.2 2282
3.22 2310
3.24 2273
3.26 2342
3.28 2254
3.3 2198
3.32 2215
3.34 2153
3.36 2137
3.38 2201
3.4 2207
3.42 2195
3.44 2177
3.46 2133
3.48 2110
3.5 2143
3.52 2062
3.54 2075
3.56 1976
3.58 1994
3.6 2066
3.62 2001
3.64 1957
3.66 2007
3.68 2066
3.7 1974
3.72 1997
3.74 1964
3.76 1917
3.78 1834
3.8 1877
3.82 1873
3.84 1874
3.86 1920
3.88 1837
3.9 1807
3.92 1842
3.94 1794
3.96 1792
3.98 1857
4 1816
4.02 1812
4.04 1817
4.06 1764
4.08 1747
4.1 1757
4.12 1798
4.14 1737
4.16 1735
4.18 1781
4.2 1804
4.22 1753
4.24 1696
4.26 1725
4.28 1674
4.3 1761
4.32 1663
4.34 1738
4.36 1730
4.38 1720
4.4 1646
4.42 1579
4.44 1617
4.46 1648
4.48 1644
4.5 1620
4.52 1621
4.54 1639
4.56 1617
4.58 1589
4.6 1602
4.62 1629
4.64 1606
4.66 1559
4.68 1591
4.7 1601
4.72 1566
4.74 1523
4.76 1518
4.78 1531
4.8 1529
4.82 1524
4.84 1580
4.86 1624
4.88 1583
4.9 1640
4.92 1576
4.94 1553
4.96 1521
4.98 1579
5 1614
5.02 1572
5.04 1555
5.06 1632
5.08 1510
5.1 1584
5.12 1597
5.14 1552
5.16 1612
5.18 1689
5.2 1640
5.22 1674
5.24 1757
5.26 1812
5.28 1766
5.3 1922
5.32 1944
5.34 2062
5.36 2251
5.38 2447
5.4 2611
5.42 2583
5.44 2085
5.46 1759
5.48 1548
5.5 1462
5.52 1431
5.54 1416
5.56 1328
5.58 1276
5.6 1252
5.62 1237
5.64 1213
5.66 1226
5.68 1238
5.7 1219
5.72 1168
5.74 1137
5.76 1117
5.78 1108
5.8 1152
5.82 1087
5.84 1110
5.86 1063
5.88 1018
5.9 1069
5.92 1089
5.94 1050
5.96 978
5.98 1053
6 995
6.02 993
6.04 1038
6.06 930
6.08 931
6.1 960
6.12 986
6.14 975
6.16 900
6.18 977
6.2 950
6.22 954
6.24 926
6.26 928
6.28 901
6.3 878
6.32 879
6.34 891
6.36 873
6.38 870
6.4 833
6.42 845
6.44 831
6.46 854
6.48 888
6.5 813
6.52 844
6.54 779
6.56 820
6.58 810
6.6 839
6.62 849
6.64 770
6.66 836
6.68 786
6.7 749
6.72 815
6.74 812
6.76 784
6.78 752
6.8 781
6.82 802
6.84 760
6.86 734
6.88 753
6.9 734
6.92 697
6.94 747
6.96 799
6.98 768
7 761
7.02 730
7.04 726
7.06 801
7.08 747
7.1 787
7.12 773
7.14 727
7.16 744
7.18 694
7.2 720
7.22 776
7.24 703
7.26 741
7.28 723
7.3 732
7.32 755
7.34 704
7.36 732
7.38 744
7.4 746
7.42 747
7.44 740
7.46 715
7.48 687
7.5 724
7.52 701
7.54 734
7.56 721
7.58 697
7.6 708
7.62 751
7.64 703
7.66 681
7.68 655
7.7 727
7.72 689
7.74 695
7.76 698
7.78 672
7.8 609
7.82 709
7.84 732
7.86 671
7.88 671
7.9 659
7.92 719
7.94 696
7.96 640
7.98 662
8 693
8.02 642
8.04 637
8.06 695
8.08 636
8.1 662
8.12 661
8.14 662
8.16 700
8.18 686
8.2 649
8.22 690
8.24 684
8.26 651
8.28 718
8.3 664
8.32 641
8.34 665
8.36 614
8.38 622
8.4 670
8.42 650
8.44 663
8.46 642
8.48 647
8.5 671
8.52 666
8.54 631
8.56 643
8.58 671
8.6 685
8.62 664
8.64 635
8.66 635
8.68 651
8.7 670
8.72 666
8.74 656
8.76 615
8.78 689
8.8 710
8.82 650
8.84 644
8.86 644
8.88 639
8.9 662
8.92 655
8.94 664
8.96 685
8.98 633
9 664
9.02 670
9.04 670
9.06 679
9.08 708
9.1 670
9.12 725
9.14 687
9.16 715
9.18 730
9.2 769
9.22 755
9.24 797
9.26 847
9.28 941
9.3 957
9.32 1044
9.34 946
9.36 878
9.38 786
9.4 713
9.42 709
9.44 659
9.46 702
9.48 663
9.5 678
9.52 665
9.54 647
9.56 588
9.58 613
9.6 607
9.62 618
9.64 594
9.66 663
9.68 637
9.7 633
9.72 647
9.74 659
9.76 632
9.78 626
9.8 623
9.82 615
9.84 559
9.86 630
9.88 595
9.9 605
9.92 634
9.94 604
9.96 595
9.98 652
10 600
10.02 619
10.04 576
10.06 624
10.08 597
10.1 578
10.12 647
10.14 651
10.16 605
10.18 585
10.2 628
10.22 576
10.24 582
10.26 572
10.28 673
10.3 613
10.32 582
10.34 663
10.36 635
10.38 594
10.4 637
10.42 605
10.44 589
10.46 598
10.48 602
10.5 631
10.52 607
10.54 632
10.56 635
10.58 602
10.6 628
10.62 665
10.64 668
10.66 696
10.68 686
10.7 731
10.72 756
10.74 756
10.76 776
10.78 759
10.8 699
10.82 670
10.84 670
10.86 673
10.88 644
10.9 598
10.92 583
10.94 609
10.96 583
10.98 604
11 544
11.02 572
11.04 603
11.06 614
11.08 589
11.1 546
11.12 556
11.14 593
11.16 590
11.18 546
11.2 591
11.22 593
11.24 565
11.26 558
11.28 542
11.3 602
11.32 580
11.34 535
11.36 582
11.38 503
11.4 559
11.42 562
11.44 546
11.46 558
11.48 541
11.5 514
11.52 562
11.54 595
11.56 564
11.58 564
11.6 553
11.62 570
11.64 559
11.66 602
11.68 543
11.7 587
11.72 547
11.74 589
11.76 567
11.78 565
11.8 540
11.82 577
11.84 578
11.86 540
11.88 587
11.9 559
11.92 598
11.94 575
11.96 575
11.98 580
12 563
12.02 551
12.04 598
12.06 567
12.08 568
12.1 556
12.12 584
12.14 597
12.16 591
12.18 544
12.2 578
12.22 565
12.24 599
12.26 604
12.28 571
12.3 578
12.32 584
12.34 601
12.36 571
12.38 600
12.4 568
12.42 601
12.44 581
12.46 560
12.48 612
12.5 553
12.52 574
12.54 597
12.56 579
12.58 552
12.6 535
12.62 570
12.64 595
12.66 567
12.68 533
12.7 616
12.72 563
12.74 558
12.76 588
12.78 591
12.8 585
12.82 588
12.84 545
12.86 589
12.88 611
12.9 604
12.92 552
12.94 574
12.96 588
12.98 568
13 609
13.02 573
13.04 580
13.06 581
13.08 574
13.1 595
13.12 580
13.14 562
13.16 605
13.18 597
13.2 573
13.22 600
13.24 634
13.26 549
13.28 599
13.3 618
13.32 593
13.34 619
13.36 630
13.38 556
13.4 585
13.42 554
13.44 596
13.46 586
13.48 605
13.5 571
13.52 581
13.54 600
13.56 613
13.58 596
13.6 597
13.62 554
13.64 607
13.66 610
13.68 591
13.7 600
13.72 602
13.74 605
13.76 593
13.78 608
13.8 610
13.82 608
13.84 593
13.86 608
13.88 585
13.9 618
13.92 634
13.94 632
13.96 577
13.98 595
14 614
14.02 596
14.04 635
14.06 602
14.08 642
14.1 629
14.12 579
14.14 610
14.16 597
14.18 674
14.2 615
14.22 626
14.24 661
14.26 655
14.28 616
14.3 589
14.32 577
14.34 629
14.36 587
14.38 591
14.4 624
14.42 624
14.44 651
14.46 606
14.48 601
14.5 594
14.52 622
14.54 623
14.56 586
14.58 608
14.6 652
14.62 605
14.64 587
14.66 649
14.68 610
14.7 643
14.72 632
14.74 592
14.76 627
14.78 629
14.8 650
14.82 638
14.84 586
14.86 607
14.88 610
14.9 635
14.92 585
14.94 615
14.96 593
14.98 624
15 651
15.02 631
15.04 692
15.06 611
15.08 614
15.1 634
15.12 639
15.14 628
15.16 625
15.18 593
15.2 608
15.22 659
15.24 672
15.26 622
15.28 656
15.3 673
15.32 679
15.34 664
15.36 633
15.38 631
15.4 680
15.42 659
15.44 648
15.46 670
15.48 645
15.5 660
15.52 679
15.54 653
15.56 607
15.58 661
15.6 667
15.62 696
15.64 725
15.66 680
15.68 664
15.7 681
15.72 664
15.74 594
15.76 649
15.78 702
15.8 679
15.82 672
15.84 681
15.86 716
15.88 672
15.9 674
15.92 681
15.94 677
15.96 696
15.98 697
16 662
16.02 676
16.04 700
16.06 688
16.08 713
16.1 678
16.12 710
16.14 734
16.16 667
16.18 680
16.2 754
16.22 702
16.24 704
16.26 689
16.28 663
16.3 700
16.32 749
16.34 716
16.36 722
16.38 712
16.4 736
16.42 673
16.44 700
16.46 739
16.48 728
16.5 734
16.52 725
16.54 728
16.56 730
16.58 729
16.6 703
16.62 684
16.64 776
16.66 746
16.68 725
16.7 760
16.72 709
16.74 775
16.76 787
16.78 773
16.8 793
16.82 801
16.84 852
16.86 873
16.88 847
16.9 862
16.92 916
16.94 1019
16.96 1248
16.98 2163
17 2060
17.02 2009
17.04 1695
17.06 1140
17.08 990
17.1 874
17.12 845
17.14 755
17.16 814
17.18 779
17.2 764
17.22 790
17.24 775
17.26 782
17.28 876
17.3 832
17.32 841
17.34 770
17.36 775
17.38 772
17.4 769
17.42 866
17.44 753
17.46 844
17.48 846
17.5 861
17.52 778
17.54 823
17.56 808
17.58 859
17.6 778
17.62 808
17.64 815
17.66 798
17.68 773
17.7 824
17.72 835
17.74 797
17.76 861
17.78 820
17.8 820
17.82 835
17.84 805
17.86 838
17.88 811
17.9 791
17.92 765
17.94 846
17.96 812
17.98 827
18 827
18.02 789
18.04 830
18.06 832
18.08 840
18.1 826
18.12 810
18.14 846
18.16 872
18.18 816
18.2 855
18.22 836
18.24 850
18.26 847
18.28 875
18.3 802
18.32 889
18.34 872
18.36 870
18.38 834
18.4 851
18.42 829
18.44 858
18.46 901
18.48 887
18.5 850
18.52 872
18.54 828
18.56 884
18.58 846
18.6 882
18.62 911
18.64 952
18.66 951
18.68 915
18.7 905
18.72 980
18.74 888
18.76 926
18.78 894
18.8 922
18.82 915
18.84 929
18.86 936
18.88 945
18.9 903
18.92 923
18.94 929
18.96 902
18.98 925
19 975
19.02 1009
19.04 939
19.06 982
19.08 943
19.1 949
19.12 950
19.14 935
19.16 912
19.18 968
19.2 959
19.22 973
19.24 987
19.26 1002
19.28 938
19.3 959
19.32 977
19.34 957
19.36 1034
19.38 1026
19.4 1066
19.42 1029
19.44 1072
19.46 1064
19.48 1034
19.5 1038
19.52 997
19.54 995
19.56 967
19.58 1002
19.6 981
19.62 991
19.64 1031
19.66 956
19.68 1019
19.7 1024
19.72 984
19.74 1021
19.76 1015
19.78 996
19.8 978
19.82 1020
19.84 995
19.86 1009
19.88 985
19.9 1068
19.92 1048
19.94 1039
19.96 1000
19.98 968
20 1003