File: xrd-UiO-67/pxrddata/37-23.ASC
3 3031
3.02 2864
3.04 2789
3.06 2689
3.08 2505
3.1 2391
3.12 2464
3.14 2273
3.16 2261
3.18 2260
3.2 2222
3.22 2223
3.24 2171
3.26 2232
3.28 2199
3.3 2079
3.32 2062
3.34 2100
3.36 2055
3.38 1959
3.4 2042
3.42 1981
3.44 1944
3.46 1962
3.48 1909
3.5 1892
3.52 1875
3.54 1947
3.56 1872
3.58 1864
3.6 1848
3.62 1832
3.64 1789
3.66 1752
3.68 1692
3.7 1736
3.72 1664
3.74 1688
3.76 1676
3.78 1616
3.8 1700
3.82 1667
3.84 1667
3.86 1667
3.88 1665
3.9 1596
3.92 1537
3.94 1648
3.96 1592
3.98 1595
4 1626
4.02 1598
4.04 1493
4.06 1591
4.08 1509
4.1 1486
4.12 1539
4.14 1538
4.16 1405
4.18 1484
4.2 1518
4.22 1493
4.24 1382
4.26 1442
4.28 1425
4.3 1386
4.32 1463
4.34 1415
4.36 1411
4.38 1462
4.4 1367
4.42 1413
4.44 1386
4.46 1337
4.48 1321
4.5 1370
4.52 1298
4.54 1353
4.56 1363
4.58 1369
4.6 1338
4.62 1342
4.64 1266
4.66 1348
4.68 1296
4.7 1292
4.72 1236
4.74 1273
4.76 1307
4.78 1219
4.8 1221
4.82 1206
4.84 1316
4.86 1148
4.88 1236
4.9 1218
4.92 1213
4.94 1290
4.96 1215
4.98 1198
5 1196
5.02 1191
5.04 1174
5.06 1155
5.08 1138
5.1 1189
5.12 1131
5.14 1112
5.16 1166
5.18 1088
5.2 1134
5.22 1114
5.24 1087
5.26 1087
5.28 1091
5.3 1068
5.32 1020
5.34 1074
5.36 1091
5.38 1109
5.4 1048
5.42 1062
5.44 1067
5.46 1046
5.48 988
5.5 1029
5.52 1021
5.54 1028
5.56 990
5.58 1000
5.6 1038
5.62 964
5.64 944
5.66 960
5.68 954
5.7 956
5.72 926
5.74 973
5.76 947
5.78 970
5.8 959
5.82 955
5.84 956
5.86 931
5.88 866
5.9 800
5.92 923
5.94 868
5.96 884
5.98 886
6 892
6.02 810
6.04 816
6.06 840
6.08 846
6.1 850
6.12 834
6.14 789
6.16 793
6.18 806
6.2 789
6.22 802
6.24 823
6.26 800
6.28 826
6.3 816
6.32 815
6.34 821
6.36 762
6.38 776
6.4 781
6.42 762
6.44 763
6.46 752
6.48 717
6.5 747
6.52 718
6.54 708
6.56 774
6.58 715
6.6 730
6.62 732
6.64 736
6.66 778
6.68 731
6.7 729
6.72 699
6.74 764
6.76 732
6.78 776
6.8 735
6.82 740
6.84 726
6.86 685
6.88 728
6.9 706
6.92 726
6.94 719
6.96 697
6.98 743
7 707
7.02 710
7.04 702
7.06 717
7.08 648
7.1 692
7.12 678
7.14 678
7.16 641
7.18 716
7.2 671
7.22 688
7.24 672
7.26 649
7.28 657
7.3 686
7.32 667
7.34 654
7.36 676
7.38 655
7.4 635
7.42 669
7.44 666
7.46 659
7.48 690
7.5 642
7.52 632
7.54 628
7.56 666
7.58 673
7.6 623
7.62 695
7.64 644
7.66 684
7.68 634
7.7 660
7.72 581
7.74 652
7.76 632
7.78 683
7.8 663
7.82 648
7.84 613
7.86 651
7.88 633
7.9 651
7.92 647
7.94 636
7.96 606
7.98 610
8 661
8.02 633
8.04 658
8.06 607
8.08 581
8.1 620
8.12 628
8.14 650
8.16 608
8.18 610
8.2 601
8.22 600
8.24 653
8.26 665
8.28 641
8.3 598
8.32 618
8.34 600
8.36 619
8.38 607
8.4 605
8.42 588
8.44 612
8.46 599
8.48 636
8.5 622
8.52 566
8.54 568
8.56 592
8.58 599
8.6 591
8.62 576
8.64 596
8.66 599
8.68 583
8.7 639
8.72 655
8.74 613
8.76 614
8.78 616
8.8 567
8.82 572
8.84 580
8.86 549
8.88 603
8.9 593
8.92 574
8.94 608
8.96 623
8.98 576
9 614
9.02 581
9.04 592
9.06 553
9.08 567
9.1 609
9.12 577
9.14 592
9.16 537
9.18 591
9.2 572
9.22 616
9.24 606
9.26 579
9.28 543
9.3 624
9.32 587
9.34 607
9.36 599
9.38 579
9.4 599
9.42 610
9.44 580
9.46 654
9.48 594
9.5 621
9.52 596
9.54 563
9.56 606
9.58 577
9.6 564
9.62 604
9.64 593
9.66 575
9.68 585
9.7 575
9.72 579
9.74 600
9.76 565
9.78 603
9.8 572
9.82 555
9.84 593
9.86 577
9.88 585
9.9 606
9.92 539
9.94 552
9.96 581
9.98 573
10 587
10.02 587
10.04 567
10.06 543
10.08 562
10.1 618
10.12 572
10.14 561
10.16 540
10.18 558
10.2 570
10.22 550
10.24 562
10.26 504
10.28 535
10.3 576
10.32 592
10.34 566
10.36 579
10.38 551
10.4 560
10.42 572
10.44 569
10.46 521
10.48 541
10.5 548
10.52 557
10.54 591
10.56 539
10.58 559
10.6 556
10.62 527
10.64 602
10.66 576
10.68 597
10.7 548
10.72 584
10.74 566
10.76 555
10.78 591
10.8 581
10.82 552
10.84 547
10.86 573
10.88 558
10.9 540
10.92 529
10.94 552
10.96 588
10.98 528
11 574
11.02 554
11.04 554
11.06 551
11.08 552
11.1 535
11.12 530
11.14 561
11.16 536
11.18 529
11.2 501
11.22 558
11.24 545
11.26 520
11.28 567
11.3 589
11.32 555
11.34 590
11.36 547
11.38 570
11.4 564
11.42 563
11.44 566
11.46 530
11.48 540
11.5 553
11.52 562
11.54 558
11.56 580
11.58 560
11.6 554
11.62 564
11.64 540
11.66 525
11.68 510
11.7 550
11.72 563
11.74 547
11.76 527
11.78 505
11.8 557
11.82 582
11.84 535
11.86 551
11.88 565
11.9 560
11.92 579
11.94 622
11.96 554
11.98 569
12 576
12.02 566
12.04 598
12.06 521
12.08 563
12.1 548
12.12 558
12.14 553
12.16 530
12.18 541
12.2 571
12.22 540
12.24 560
12.26 538
12.28 554
12.3 554
12.32 574
12.34 547
12.36 584
12.38 547
12.4 544
12.42 552
12.44 614
12.46 543
12.48 572
12.5 577
12.52 546
12.54 553
12.56 547
12.58 523
12.6 626
12.62 552
12.64 604
12.66 556
12.68 583
12.7 580
12.72 551
12.74 586
12.76 536
12.78 549
12.8 575
12.82 555
12.84 579
12.86 549
12.88 564
12.9 537
12.92 546
12.94 568
12.96 578
12.98 545
13 594
13.02 575
13.04 591
13.06 530
13.08 574
13.1 566
13.12 576
13.14 621
13.16 611
13.18 638
13.2 646
13.22 665
13.24 751
13.26 722
13.28 658
13.3 627
13.32 562
13.34 603
13.36 558
13.38 545
13.4 581
13.42 578
13.44 562
13.46 526
13.48 604
13.5 601
13.52 561
13.54 556
13.56 604
13.58 579
13.6 616
13.62 586
13.64 559
13.66 586
13.68 551
13.7 567
13.72 596
13.74 560
13.76 614
13.78 537
13.8 593
13.82 591
13.84 579
13.86 606
13.88 577
13.9 598
13.92 571
13.94 600
13.96 584
13.98 630
14 571
14.02 609
14.04 605
14.06 601
14.08 593
14.1 641
14.12 601
14.14 632
14.16 589
14.18 607
14.2 626
14.22 555
14.24 618
14.26 585
14.28 620
14.3 626
14.32 581
14.34 639
14.36 636
14.38 616
14.4 631
14.42 631
14.44 583
14.46 651
14.48 619
14.5 636
14.52 645
14.54 623
14.56 622
14.58 630
14.6 557
14.62 591
14.64 605
14.66 658
14.68 614
14.7 667
14.72 619
14.74 605
14.76 578
14.78 650
14.8 637
14.82 642
14.84 626
14.86 637
14.88 623
14.9 608
14.92 611
14.94 645
14.96 632
14.98 631
15 631
15.02 673
15.04 617
15.06 648
15.08 674
15.1 693
15.12 656
15.14 652
15.16 644
15.18 700
15.2 653
15.22 665
15.24 676
15.26 704
15.28 710
15.3 704
15.32 757
15.34 748
15.36 747
15.38 684
15.4 688
15.42 634
15.44 684
15.46 653
15.48 683
15.5 633
15.52 695
15.54 720
15.56 676
15.58 682
15.6 676
15.62 658
15.64 697
15.66 714
15.68 726
15.7 696
15.72 658
15.74 708
15.76 696
15.78 738
15.8 702
15.82 690
15.84 685
15.86 714
15.88 711
15.9 701
15.92 663
15.94 686
15.96 671
15.98 739
16 696
16.02 693
16.04 709
16.06 705
16.08 744
16.1 722
16.12 745
16.14 735
16.16 707
16.18 715
16.2 698
16.22 750
16.24 761
16.26 774
16.28 761
16.3 752
16.32 735
16.34 753
16.36 754
16.38 835
16.4 813
16.42 842
16.44 822
16.46 856
16.48 849
16.5 802
16.52 841
16.54 857
16.56 842
16.58 859
16.6 869
16.62 799
16.64 827
16.66 906
16.68 874
16.7 934
16.72 1069
16.74 1298
16.76 1459
16.78 1611
16.8 1737
16.82 1661
16.84 1732
16.86 1828
16.88 2117
16.9 2412
16.92 3312
16.94 6602
16.96 12097
16.98 13143
17 15018
17.02 9485
17.04 6204
17.06 3456
17.08 1483
17.1 1240
17.12 1062
17.14 1048
17.16 1008
17.18 931
17.2 913
17.22 930
17.24 916
17.26 899
17.28 870
17.3 925
17.32 869
17.34 906
17.36 896
17.38 936
17.4 882
17.42 920
17.44 893
17.46 904
17.48 893
17.5 885
17.52 910
17.54 913
17.56 872
17.58 951
17.6 933
17.62 909
17.64 887
17.66 956
17.68 927
17.7 961
17.72 936
17.74 954
17.76 940
17.78 938
17.8 893
17.82 903
17.84 945
17.86 966
17.88 929
17.9 919
17.92 960
17.94 953
17.96 927
17.98 912
18 984
18.02 968
18.04 900
18.06 930
18.08 963
18.1 995
18.12 948
18.14 951
18.16 936
18.18 936
18.2 975
18.22 948
18.24 936
18.26 976
18.28 976
18.3 996
18.32 935
18.34 964
18.36 1005
18.38 986
18.4 976
18.42 1035
18.44 1007
18.46 967
18.48 1011
18.5 969
18.52 980
18.54 998
18.56 1030
18.58 1013
18.6 1032
18.62 1009
18.64 922
18.66 1020
18.68 1018
18.7 998
18.72 1054
18.74 982
18.76 1016
18.78 1041
18.8 991
18.82 978
18.84 1033
18.86 980
18.88 1037
18.9 1048
18.92 1080
18.94 1043
18.96 1070
18.98 1065
19 1113
19.02 1082
19.04 1063
19.06 1056
19.08 1093
19.1 1067
19.12 1056
19.14 1111
19.16 1025
19.18 1047
19.2 1071
19.22 1085
19.24 1072
19.26 1107
19.28 1107
19.3 1003
19.32 1029
19.34 1009
19.36 1055
19.38 1119
19.4 1116
19.42 1140
19.44 1114
19.46 1096
19.48 1041
19.5 1071
19.52 1073
19.54 1131
19.56 1127
19.58 1121
19.6 1099
19.62 1082
19.64 1093
19.66 1136
19.68 1082
19.7 1151
19.72 1121
19.74 1142
19.76 1123
19.78 1171
19.8 1127
19.82 1130
19.84 1172
19.86 1152
19.88 1128
19.9 1083
19.92 1156
19.94 1153
19.96 1176
19.98 1120
20 1098