File: xrd-UiO-67/pxrddata/37-20-1.ASC
3 2384
3.02 2206
3.04 2149
3.06 2075
3.08 1909
3.1 1872
3.12 1854
3.14 1739
3.16 1706
3.18 1719
3.2 1729
3.22 1764
3.24 1646
3.26 1700
3.28 1684
3.3 1709
3.32 1685
3.34 1635
3.36 1661
3.38 1616
3.4 1634
3.42 1549
3.44 1607
3.46 1675
3.48 1614
3.5 1538
3.52 1647
3.54 1563
3.56 1566
3.58 1563
3.6 1597
3.62 1483
3.64 1510
3.66 1526
3.68 1537
3.7 1488
3.72 1474
3.74 1579
3.76 1564
3.78 1540
3.8 1541
3.82 1474
3.84 1538
3.86 1550
3.88 1494
3.9 1561
3.92 1511
3.94 1588
3.96 1589
3.98 1531
4 1531
4.02 1511
4.04 1555
4.06 1500
4.08 1547
4.1 1499
4.12 1493
4.14 1545
4.16 1615
4.18 1514
4.2 1573
4.22 1552
4.24 1618
4.26 1643
4.28 1596
4.3 1610
4.32 1549
4.34 1514
4.36 1565
4.38 1517
4.4 1572
4.42 1517
4.44 1581
4.46 1604
4.48 1631
4.5 1485
4.52 1571
4.54 1546
4.56 1614
4.58 1555
4.6 1592
4.62 1639
4.64 1575
4.66 1594
4.68 1625
4.7 1602
4.72 1552
4.74 1581
4.76 1570
4.78 1674
4.8 1648
4.82 1585
4.84 1610
4.86 1663
4.88 1619
4.9 1645
4.92 1630
4.94 1711
4.96 1625
4.98 1662
5 1666
5.02 1646
5.04 1654
5.06 1701
5.08 1657
5.1 1664
5.12 1609
5.14 1750
5.16 1666
5.18 1738
5.2 1703
5.22 1723
5.24 1708
5.26 1686
5.28 1790
5.3 1747
5.32 1824
5.34 1916
5.36 1911
5.38 2103
5.4 2057
5.42 2129
5.44 2276
5.46 2315
5.48 2269
5.5 2196
5.52 1900
5.54 1696
5.56 1652
5.58 1568
5.6 1541
5.62 1491
5.64 1471
5.66 1413
5.68 1432
5.7 1423
5.72 1357
5.74 1401
5.76 1378
5.78 1397
5.8 1338
5.82 1316
5.84 1350
5.86 1354
5.88 1255
5.9 1272
5.92 1283
5.94 1315
5.96 1211
5.98 1256
6 1226
6.02 1237
6.04 1190
6.06 1235
6.08 1243
6.1 1222
6.12 1202
6.14 1233
6.16 1149
6.18 1216
6.2 1162
6.22 1174
6.24 1205
6.26 1240
6.28 1169
6.3 1222
6.32 1199
6.34 1230
6.36 1190
6.38 1322
6.4 1379
6.42 1306
6.44 1288
6.46 1348
6.48 1440
6.5 1419
6.52 1387
6.54 1407
6.56 1423
6.58 1390
6.6 1285
6.62 1219
6.64 1125
6.66 1053
6.68 938
6.7 988
6.72 947
6.74 941
6.76 898
6.78 843
6.8 892
6.82 811
6.84 854
6.86 848
6.88 859
6.9 794
6.92 767
6.94 760
6.96 831
6.98 805
7 779
7.02 732
7.04 777
7.06 772
7.08 778
7.1 712
7.12 748
7.14 757
7.16 759
7.18 744
7.2 732
7.22 693
7.24 769
7.26 759
7.28 724
7.3 767
7.32 709
7.34 757
7.36 716
7.38 700
7.4 735
7.42 714
7.44 748
7.46 707
7.48 689
7.5 691
7.52 703
7.54 717
7.56 677
7.58 674
7.6 721
7.62 662
7.64 668
7.66 670
7.68 660
7.7 687
7.72 720
7.74 665
7.76 686
7.78 704
7.8 666
7.82 677
7.84 710
7.86 626
7.88 653
7.9 678
7.92 629
7.94 713
7.96 634
7.98 689
8 690
8.02 674
8.04 671
8.06 644
8.08 642
8.1 635
8.12 636
8.14 621
8.16 679
8.18 652
8.2 625
8.22 673
8.24 605
8.26 653
8.28 643
8.3 642
8.32 642
8.34 634
8.36 632
8.38 659
8.4 626
8.42 645
8.44 626
8.46 631
8.48 646
8.5 631
8.52 657
8.54 609
8.56 593
8.58 636
8.6 620
8.62 637
8.64 617
8.66 596
8.68 647
8.7 646
8.72 641
8.74 632
8.76 642
8.78 640
8.8 633
8.82 621
8.84 618
8.86 611
8.88 652
8.9 622
8.92 659
8.94 637
8.96 634
8.98 682
9 678
9.02 655
9.04 656
9.06 708
9.08 684
9.1 704
9.12 727
9.14 723
9.16 731
9.18 702
9.2 756
9.22 768
9.24 823
9.26 835
9.28 912
9.3 920
9.32 1033
9.34 1087
9.36 1116
9.38 1180
9.4 1239
9.42 1104
9.44 952
9.46 753
9.48 718
9.5 623
9.52 647
9.54 611
9.56 619
9.58 637
9.6 585
9.62 588
9.64 631
9.66 597
9.68 618
9.7 593
9.72 589
9.74 573
9.76 626
9.78 653
9.8 590
9.82 540
9.84 597
9.86 607
9.88 580
9.9 611
9.92 611
9.94 591
9.96 607
9.98 586
10 561
10.02 586
10.04 568
10.06 570
10.08 589
10.1 626
10.12 584
10.14 561
10.16 545
10.18 569
10.2 589
10.22 593
10.24 568
10.26 590
10.28 603
10.3 542
10.32 567
10.34 587
10.36 530
10.38 562
10.4 596
10.42 558
10.44 577
10.46 555
10.48 558
10.5 577
10.52 554
10.54 566
10.56 594
10.58 567
10.6 600
10.62 582
10.64 585
10.66 571
10.68 598
10.7 602
10.72 591
10.74 650
10.76 663
10.78 606
10.8 632
10.82 701
10.84 700
10.86 689
10.88 649
10.9 647
10.92 600
10.94 620
10.96 551
10.98 556
11 584
11.02 589
11.04 539
11.06 595
11.08 587
11.1 546
11.12 551
11.14 559
11.16 528
11.18 587
11.2 577
11.22 587
11.24 584
11.26 531
11.28 596
11.3 601
11.32 627
11.34 567
11.36 607
11.38 589
11.4 627
11.42 646
11.44 630
11.46 621
11.48 570
11.5 571
11.52 532
11.54 586
11.56 514
11.58 531
11.6 537
11.62 535
11.64 553
11.66 520
11.68 527
11.7 530
11.72 543
11.74 495
11.76 524
11.78 549
11.8 526
11.82 496
11.84 526
11.86 523
11.88 538
11.9 536
11.92 519
11.94 515
11.96 548
11.98 522
12 547
12.02 560
12.04 551
12.06 572
12.08 569
12.1 575
12.12 609
12.14 560
12.16 595
12.18 598
12.2 571
12.22 533
12.24 543
12.26 564
12.28 615
12.3 571
12.32 546
12.34 536
12.36 502
12.38 503
12.4 510
12.42 544
12.44 524
12.46 518
12.48 492
12.5 542
12.52 565
12.54 505
12.56 520
12.58 515
12.6 493
12.62 523
12.64 475
12.66 484
12.68 524
12.7 523
12.72 510
12.74 504
12.76 503
12.78 527
12.8 489
12.82 535
12.84 520
12.86 504
12.88 587
12.9 525
12.92 526
12.94 495
12.96 518
12.98 523
13 507
13.02 493
13.04 548
13.06 525
13.08 513
13.1 514
13.12 518
13.14 474
13.16 538
13.18 558
13.2 527
13.22 544
13.24 550
13.26 540
13.28 582
13.3 600
13.32 550
13.34 582
13.36 577
13.38 513
13.4 530
13.42 486
13.44 478
13.46 521
13.48 474
13.5 479
13.52 520
13.54 499
13.56 455
13.58 536
13.6 501
13.62 516
13.64 534
13.66 510
13.68 509
13.7 459
13.72 462
13.74 491
13.76 499
13.78 491
13.8 521
13.82 481
13.84 519
13.86 482
13.88 494
13.9 464
13.92 491
13.94 488
13.96 500
13.98 503
14 515
14.02 498
14.04 490
14.06 501
14.08 452
14.1 523
14.12 469
14.14 502
14.16 499
14.18 477
14.2 497
14.22 455
14.24 507
14.26 532
14.28 479
14.3 541
14.32 518
14.34 489
14.36 508
14.38 493
14.4 547
14.42 466
14.44 542
14.46 528
14.48 498
14.5 508
14.52 486
14.54 538
14.56 533
14.58 499
14.6 530
14.62 535
14.64 534
14.66 540
14.68 529
14.7 517
14.72 511
14.74 554
14.76 478
14.78 475
14.8 495
14.82 490
14.84 525
14.86 498
14.88 506
14.9 515
14.92 495
14.94 502
14.96 504
14.98 534
15 537
15.02 510
15.04 534
15.06 468
15.08 498
15.1 517
15.12 497
15.14 508
15.16 528
15.18 488
15.2 499
15.22 507
15.24 540
15.26 568
15.28 539
15.3 540
15.32 562
15.34 531
15.36 529
15.38 532
15.4 538
15.42 537
15.44 530
15.46 544
15.48 512
15.5 562
15.52 546
15.54 516
15.56 525
15.58 518
15.6 529
15.62 509
15.64 503
15.66 518
15.68 531
15.7 512
15.72 528
15.74 568
15.76 518
15.78 549
15.8 534
15.82 528
15.84 488
15.86 497
15.88 539
15.9 582
15.92 495
15.94 532
15.96 516
15.98 505
16 550
16.02 548
16.04 526
16.06 523
16.08 550
16.1 504
16.12 544
16.14 502
16.16 544
16.18 540
16.2 529
16.22 496
16.24 540
16.26 575
16.28 533
16.3 545
16.32 532
16.34 530
16.36 549
16.38 558
16.4 542
16.42 538
16.44 498
16.46 591
16.48 546
16.5 573
16.52 546
16.54 565
16.56 554
16.58 591
16.6 639
16.62 659
16.64 672
16.66 662
16.68 700
16.7 722
16.72 679
16.74 725
16.76 769
16.78 836
16.8 925
16.82 1070
16.84 1083
16.86 1214
16.88 1431
16.9 1765
16.92 2090
16.94 1995
16.96 2173
16.98 2333
17 2416
17.02 2550
17.04 2368
17.06 1915
17.08 1692
17.1 1256
17.12 1036
17.14 875
17.16 730
17.18 703
17.2 597
17.22 593
17.24 568
17.26 595
17.28 618
17.3 601
17.32 557
17.34 568
17.36 603
17.38 591
17.4 543
17.42 573
17.44 574
17.46 593
17.48 564
17.5 586
17.52 559
17.54 605
17.56 594
17.58 576
17.6 624
17.62 590
17.64 619
17.66 610
17.68 626
17.7 633
17.72 580
17.74 573
17.76 577
17.78 558
17.8 622
17.82 583
17.84 617
17.86 592
17.88 593
17.9 600
17.92 581
17.94 552
17.96 588
17.98 585
18 616
18.02 596
18.04 569
18.06 555
18.08 600
18.1 579
18.12 590
18.14 602
18.16 630
18.18 630
18.2 590
18.22 635
18.24 612
18.26 561
18.28 657
18.3 593
18.32 572
18.34 594
18.36 611
18.38 584
18.4 644
18.42 589
18.44 612
18.46 587
18.48 656
18.5 633
18.52 635
18.54 660
18.56 625
18.58 632
18.6 677
18.62 605
18.64 628
18.66 611
18.68 596
18.7 620
18.72 628
18.74 656
18.76 662
18.78 612
18.8 595
18.82 635
18.84 657
18.86 677
18.88 655
18.9 658
18.92 592
18.94 613
18.96 615
18.98 609
19 658
19.02 647
19.04 648
19.06 632
19.08 625
19.1 631
19.12 645
19.14 598
19.16 622
19.18 640
19.2 677
19.22 625
19.24 698
19.26 656
19.28 683
19.3 624
19.32 731
19.34 650
19.36 697
19.38 672
19.4 741
19.42 695
19.44 699
19.46 753
19.48 742
19.5 730
19.52 740
19.54 735
19.56 735
19.58 700
19.6 725
19.62 714
19.64 663
19.66 710
19.68 695
19.7 730
19.72 691
19.74 705
19.76 713
19.78 713
19.8 731
19.82 711
19.84 712
19.86 674
19.88 736
19.9 690
19.92 658
19.94 640
19.96 697
19.98 709
20 659