File: xrd-UiO-67/pxrddata/37-24.ASC
3 2194
3.02 2102
3.04 1951
3.06 1799
3.08 1786
3.1 1681
3.12 1626
3.14 1557
3.16 1583
3.18 1538
3.2 1510
3.22 1564
3.24 1460
3.26 1483
3.28 1489
3.3 1482
3.32 1410
3.34 1397
3.36 1337
3.38 1366
3.4 1411
3.42 1439
3.44 1397
3.46 1356
3.48 1330
3.5 1260
3.52 1356
3.54 1320
3.56 1282
3.58 1266
3.6 1308
3.62 1301
3.64 1268
3.66 1275
3.68 1291
3.7 1190
3.72 1233
3.74 1235
3.76 1225
3.78 1303
3.8 1198
3.82 1235
3.84 1173
3.86 1213
3.88 1226
3.9 1220
3.92 1159
3.94 1242
3.96 1161
3.98 1255
4 1187
4.02 1204
4.04 1111
4.06 1175
4.08 1143
4.1 1165
4.12 1200
4.14 1148
4.16 1198
4.18 1191
4.2 1167
4.22 1184
4.24 1160
4.26 1156
4.28 1188
4.3 1135
4.32 1081
4.34 1093
4.36 1158
4.38 1144
4.4 1181
4.42 1104
4.44 1129
4.46 1124
4.48 1150
4.5 1125
4.52 1128
4.54 1078
4.56 1066
4.58 1107
4.6 1162
4.62 1179
4.64 1127
4.66 1106
4.68 1088
4.7 1116
4.72 1078
4.74 1130
4.76 1126
4.78 1140
4.8 1094
4.82 1155
4.84 1131
4.86 1079
4.88 1070
4.9 1004
4.92 1059
4.94 1038
4.96 1111
4.98 1088
5 1140
5.02 1062
5.04 1066
5.06 1113
5.08 1054
5.1 1067
5.12 1047
5.14 1049
5.16 1038
5.18 1029
5.2 1021
5.22 995
5.24 1059
5.26 1012
5.28 976
5.3 1037
5.32 974
5.34 1013
5.36 993
5.38 994
5.4 1001
5.42 1040
5.44 1106
5.46 1047
5.48 988
5.5 1009
5.52 1041
5.54 957
5.56 936
5.58 942
5.6 939
5.62 929
5.64 876
5.66 915
5.68 871
5.7 879
5.72 914
5.74 857
5.76 904
5.78 866
5.8 872
5.82 827
5.84 850
5.86 814
5.88 871
5.9 864
5.92 802
5.94 796
5.96 781
5.98 771
6 784
6.02 759
6.04 780
6.06 762
6.08 781
6.1 781
6.12 718
6.14 751
6.16 731
6.18 756
6.2 752
6.22 716
6.24 689
6.26 727
6.28 711
6.3 722
6.32 716
6.34 729
6.36 738
6.38 707
6.4 682
6.42 708
6.44 692
6.46 693
6.48 719
6.5 683
6.52 691
6.54 693
6.56 668
6.58 718
6.6 713
6.62 689
6.64 722
6.66 707
6.68 647
6.7 664
6.72 716
6.74 688
6.76 651
6.78 699
6.8 708
6.82 664
6.84 626
6.86 693
6.88 657
6.9 686
6.92 680
6.94 634
6.96 645
6.98 635
7 651
7.02 674
7.04 638
7.06 628
7.08 668
7.1 605
7.12 648
7.14 645
7.16 633
7.18 659
7.2 621
7.22 646
7.24 625
7.26 628
7.28 632
7.3 609
7.32 628
7.34 646
7.36 621
7.38 653
7.4 642
7.42 627
7.44 613
7.46 620
7.48 620
7.5 665
7.52 633
7.54 605
7.56 586
7.58 606
7.6 665
7.62 605
7.64 611
7.66 586
7.68 570
7.7 695
7.72 610
7.74 620
7.76 601
7.78 628
7.8 606
7.82 611
7.84 621
7.86 660
7.88 673
7.9 602
7.92 609
7.94 578
7.96 601
7.98 616
8 595
8.02 588
8.04 636
8.06 610
8.08 579
8.1 645
8.12 611
8.14 638
8.16 589
8.18 609
8.2 607
8.22 594
8.24 615
8.26 610
8.28 665
8.3 608
8.32 625
8.34 597
8.36 604
8.38 571
8.4 621
8.42 586
8.44 631
8.46 608
8.48 577
8.5 586
8.52 589
8.54 598
8.56 591
8.58 617
8.6 588
8.62 599
8.64 596
8.66 582
8.68 591
8.7 575
8.72 655
8.74 591
8.76 592
8.78 578
8.8 595
8.82 598
8.84 588
8.86 560
8.88 582
8.9 631
8.92 627
8.94 605
8.96 586
8.98 552
9 564
9.02 555
9.04 575
9.06 616
9.08 633
9.1 573
9.12 569
9.14 635
9.16 593
9.18 586
9.2 624
9.22 554
9.24 600
9.26 644
9.28 631
9.3 596
9.32 603
9.34 620
9.36 626
9.38 631
9.4 604
9.42 645
9.44 616
9.46 596
9.48 585
9.5 652
9.52 582
9.54 586
9.56 589
9.58 577
9.6 570
9.62 564
9.64 594
9.66 572
9.68 578
9.7 609
9.72 598
9.74 581
9.76 575
9.78 609
9.8 595
9.82 607
9.84 582
9.86 567
9.88 572
9.9 548
9.92 620
9.94 535
9.96 573
9.98 577
10 572
10.02 596
10.04 569
10.06 572
10.08 569
10.1 620
10.12 585
10.14 580
10.16 543
10.18 591
10.2 574
10.22 580
10.24 578
10.26 546
10.28 529
10.3 568
10.32 544
10.34 547
10.36 554
10.38 609
10.4 583
10.42 586
10.44 586
10.46 552
10.48 596
10.5 603
10.52 533
10.54 536
10.56 541
10.58 604
10.6 535
10.62 564
10.64 520
10.66 601
10.68 551
10.7 605
10.72 549
10.74 571
10.76 566
10.78 565
10.8 564
10.82 554
10.84 576
10.86 635
10.88 560
10.9 575
10.92 571
10.94 562
10.96 575
10.98 553
11 566
11.02 582
11.04 579
11.06 596
11.08 589
11.1 536
11.12 551
11.14 551
11.16 624
11.18 524
11.2 544
11.22 595
11.24 583
11.26 561
11.28 586
11.3 575
11.32 572
11.34 551
11.36 563
11.38 544
11.4 543
11.42 518
11.44 580
11.46 570
11.48 570
11.5 581
11.52 597
11.54 595
11.56 624
11.58 564
11.6 561
11.62 578
11.64 595
11.66 601
11.68 569
11.7 555
11.72 578
11.74 574
11.76 546
11.78 550
11.8 601
11.82 548
11.84 545
11.86 567
11.88 584
11.9 566
11.92 562
11.94 530
11.96 566
11.98 573
12 561
12.02 557
12.04 587
12.06 559
12.08 600
12.1 594
12.12 582
12.14 567
12.16 611
12.18 589
12.2 597
12.22 593
12.24 587
12.26 571
12.28 558
12.3 584
12.32 573
12.34 589
12.36 555
12.38 608
12.4 598
12.42 577
12.44 568
12.46 571
12.48 548
12.5 570
12.52 558
12.54 572
12.56 580
12.58 563
12.6 601
12.62 547
12.64 598
12.66 570
12.68 584
12.7 552
12.72 611
12.74 584
12.76 543
12.78 586
12.8 538
12.82 569
12.84 587
12.86 595
12.88 567
12.9 583
12.92 630
12.94 542
12.96 578
12.98 606
13 614
13.02 605
13.04 599
13.06 632
13.08 637
13.1 591
13.12 591
13.14 575
13.16 608
13.18 600
13.2 581
13.22 612
13.24 609
13.26 592
13.28 579
13.3 645
13.32 592
13.34 665
13.36 624
13.38 610
13.4 560
13.42 587
13.44 593
13.46 590
13.48 658
13.5 613
13.52 595
13.54 565
13.56 557
13.58 582
13.6 572
13.62 620
13.64 602
13.66 560
13.68 589
13.7 620
13.72 564
13.74 577
13.76 616
13.78 604
13.8 636
13.82 588
13.84 582
13.86 611
13.88 604
13.9 590
13.92 635
13.94 604
13.96 599
13.98 651
14 619
14.02 647
14.04 623
14.06 596
14.08 657
14.1 583
14.12 631
14.14 664
14.16 633
14.18 623
14.2 662
14.22 629
14.24 631
14.26 616
14.28 637
14.3 646
14.32 615
14.34 629
14.36 619
14.38 654
14.4 581
14.42 611
14.44 598
14.46 644
14.48 651
14.5 631
14.52 638
14.54 636
14.56 628
14.58 619
14.6 627
14.62 649
14.64 655
14.66 666
14.68 655
14.7 677
14.72 670
14.74 675
14.76 603
14.78 627
14.8 674
14.82 683
14.84 649
14.86 650
14.88 636
14.9 657
14.92 645
14.94 621
14.96 672
14.98 641
15 626
15.02 659
15.04 718
15.06 684
15.08 699
15.1 675
15.12 703
15.14 657
15.16 680
15.18 694
15.2 674
15.22 685
15.24 711
15.26 706
15.28 693
15.3 698
15.32 724
15.34 716
15.36 666
15.38 693
15.4 721
15.42 727
15.44 737
15.46 705
15.48 726
15.5 665
15.52 724
15.54 681
15.56 761
15.58 723
15.6 725
15.62 704
15.64 722
15.66 735
15.68 701
15.7 736
15.72 720
15.74 698
15.76 739
15.78 727
15.8 688
15.82 709
15.84 753
15.86 750
15.88 730
15.9 728
15.92 724
15.94 753
15.96 763
15.98 732
16 741
16.02 760
16.04 732
16.06 750
16.08 764
16.1 794
16.12 725
16.14 742
16.16 750
16.18 758
16.2 765
16.22 735
16.24 817
16.26 777
16.28 812
16.3 811
16.32 722
16.34 765
16.36 793
16.38 737
16.4 732
16.42 827
16.44 820
16.46 781
16.48 817
16.5 821
16.52 874
16.54 833
16.56 797
16.58 796
16.6 805
16.62 823
16.64 830
16.66 813
16.68 841
16.7 916
16.72 895
16.74 875
16.76 898
16.78 960
16.8 984
16.82 987
16.84 1076
16.86 1059
16.88 1112
16.9 1170
16.92 1314
16.94 1471
16.96 1814
16.98 2103
17 2341
17.02 2779
17.04 3065
17.06 3046
17.08 3081
17.1 2478
17.12 1874
17.14 1781
17.16 1464
17.18 1153
17.2 1118
17.22 942
17.24 896
17.26 919
17.28 902
17.3 948
17.32 893
17.34 960
17.36 926
17.38 904
17.4 991
17.42 917
17.44 900
17.46 922
17.48 884
17.5 891
17.52 882
17.54 922
17.56 962
17.58 967
17.6 944
17.62 940
17.64 970
17.66 961
17.68 928
17.7 916
17.72 928
17.74 918
17.76 950
17.78 934
17.8 966
17.82 961
17.84 980
17.86 994
17.88 1065
17.9 1021
17.92 976
17.94 1024
17.96 987
17.98 986
18 1037
18.02 1014
18.04 978
18.06 1010
18.08 997
18.1 1009
18.12 990
18.14 1032
18.16 1048
18.18 1019
18.2 1038
18.22 1089
18.24 1040
18.26 1045
18.28 1008
18.3 974
18.32 1043
18.34 1058
18.36 1087
18.38 1054
18.4 996
18.42 1126
18.44 1083
18.46 1038
18.48 1070
18.5 1080
18.52 1009
18.54 1059
18.56 1077
18.58 1078
18.6 1067
18.62 1106
18.64 1052
18.66 1098
18.68 1045
18.7 1055
18.72 1095
18.74 1139
18.76 1074
18.78 1112
18.8 1028
18.82 1098
18.84 1100
18.86 1132
18.88 1143
18.9 1122
18.92 1084
18.94 1130
18.96 1158
18.98 1100
19 1075
19.02 1126
19.04 1155
19.06 1119
19.08 1119
19.1 1142
19.12 1140
19.14 1180
19.16 1166
19.18 1167
19.2 1135
19.22 1184
19.24 1252
19.26 1175
19.28 1155
19.3 1116
19.32 1212
19.34 1281
19.36 1258
19.38 1186
19.4 1215
19.42 1166
19.44 1204
19.46 1203
19.48 1223
19.5 1176
19.52 1210
19.54 1161
19.56 1192
19.58 1232
19.6 1170
19.62 1253
19.64 1178
19.66 1201
19.68 1288
19.7 1178
19.72 1234
19.74 1239
19.76 1218
19.78 1272
19.8 1283
19.82 1163
19.84 1245
19.86 1206
19.88 1251
19.9 1267
19.92 1263
19.94 1279
19.96 1364
19.98 1307
20 1267