File: xrd-UiO-67/pxrddata/37-38.ASC
3 2387
3.02 2383
3.04 2182
3.06 1902
3.08 1837
3.1 1790
3.12 1692
3.14 1688
3.16 1688
3.18 1644
3.2 1641
3.22 1634
3.24 1565
3.26 1564
3.28 1487
3.3 1523
3.32 1468
3.34 1463
3.36 1414
3.38 1449
3.4 1443
3.42 1439
3.44 1320
3.46 1369
3.48 1358
3.5 1437
3.52 1356
3.54 1375
3.56 1295
3.58 1284
3.6 1286
3.62 1231
3.64 1258
3.66 1203
3.68 1172
3.7 1220
3.72 1223
3.74 1211
3.76 1191
3.78 1196
3.8 1188
3.82 1146
3.84 1127
3.86 1182
3.88 1139
3.9 1153
3.92 1146
3.94 1182
3.96 1113
3.98 1141
4 1133
4.02 1107
4.04 1142
4.06 1066
4.08 1135
4.1 1100
4.12 1073
4.14 1073
4.16 1088
4.18 1151
4.2 1050
4.22 1090
4.24 1061
4.26 1013
4.28 993
4.3 1009
4.32 1012
4.34 1003
4.36 980
4.38 1010
4.4 973
4.42 1006
4.44 925
4.46 959
4.48 941
4.5 919
4.52 919
4.54 921
4.56 927
4.58 934
4.6 913
4.62 902
4.64 887
4.66 883
4.68 859
4.7 882
4.72 888
4.74 881
4.76 861
4.78 897
4.8 864
4.82 838
4.84 818
4.86 850
4.88 874
4.9 880
4.92 881
4.94 863
4.96 865
4.98 872
5 924
5.02 880
5.04 899
5.06 914
5.08 887
5.1 888
5.12 888
5.14 907
5.16 883
5.18 897
5.2 951
5.22 966
5.24 973
5.26 964
5.28 1001
5.3 1003
5.32 1042
5.34 1149
5.36 1101
5.38 1143
5.4 1235
5.42 1305
5.44 1386
5.46 1438
5.48 1492
5.5 1497
5.52 1579
5.54 1683
5.56 1789
5.58 1805
5.6 1733
5.62 1625
5.64 1326
5.66 1312
5.68 1324
5.7 1263
5.72 1251
5.74 1263
5.76 1290
5.78 1246
5.8 1355
5.82 1319
5.84 1310
5.86 1377
5.88 1345
5.9 1369
5.92 1306
5.94 1271
5.96 1221
5.98 1070
6 937
6.02 811
6.04 800
6.06 756
6.08 721
6.1 723
6.12 736
6.14 710
6.16 671
6.18 679
6.2 645
6.22 627
6.24 677
6.26 648
6.28 683
6.3 640
6.32 646
6.34 637
6.36 647
6.38 631
6.4 630
6.42 593
6.44 629
6.46 644
6.48 591
6.5 626
6.52 640
6.54 623
6.56 630
6.58 622
6.6 666
6.62 617
6.64 618
6.66 612
6.68 663
6.7 600
6.72 610
6.74 634
6.76 681
6.78 622
6.8 628
6.82 616
6.84 664
6.86 672
6.88 611
6.9 643
6.92 615
6.94 610
6.96 628
6.98 614
7 623
7.02 573
7.04 629
7.06 572
7.08 571
7.1 608
7.12 561
7.14 572
7.16 550
7.18 589
7.2 601
7.22 556
7.24 582
7.26 543
7.28 543
7.3 540
7.32 594
7.34 581
7.36 597
7.38 541
7.4 538
7.42 579
7.44 531
7.46 566
7.48 562
7.5 557
7.52 529
7.54 567
7.56 573
7.58 588
7.6 582
7.62 563
7.64 577
7.66 547
7.68 558
7.7 574
7.72 552
7.74 525
7.76 554
7.78 500
7.8 536
7.82 537
7.84 549
7.86 525
7.88 505
7.9 583
7.92 549
7.94 545
7.96 518
7.98 513
8 569
8.02 540
8.04 517
8.06 561
8.08 591
8.1 529
8.12 551
8.14 561
8.16 527
8.18 598
8.2 526
8.22 510
8.24 522
8.26 556
8.28 536
8.3 551
8.32 596
8.34 557
8.36 565
8.38 508
8.4 530
8.42 533
8.44 548
8.46 538
8.48 515
8.5 527
8.52 530
8.54 511
8.56 553
8.58 549
8.6 502
8.62 540
8.64 538
8.66 534
8.68 535
8.7 506
8.72 532
8.74 531
8.76 557
8.78 527
8.8 557
8.82 535
8.84 516
8.86 512
8.88 533
8.9 550
8.92 529
8.94 544
8.96 530
8.98 542
9 519
9.02 523
9.04 515
9.06 540
9.08 532
9.1 543
9.12 572
9.14 559
9.16 547
9.18 556
9.2 616
9.22 584
9.24 688
9.26 608
9.28 623
9.3 659
9.32 615
9.34 713
9.36 783
9.38 807
9.4 745
9.42 765
9.44 833
9.46 868
9.48 920
9.5 897
9.52 865
9.54 756
9.56 654
9.58 588
9.6 593
9.62 519
9.64 534
9.66 565
9.68 561
9.7 512
9.72 535
9.74 510
9.76 515
9.78 501
9.8 506
9.82 520
9.84 494
9.86 553
9.88 523
9.9 530
9.92 530
9.94 525
9.96 540
9.98 497
10 511
10.02 523
10.04 518
10.06 527
10.08 555
10.1 548
10.12 562
10.14 514
10.16 518
10.18 518
10.2 495
10.22 514
10.24 528
10.26 529
10.28 566
10.3 537
10.32 559
10.34 563
10.36 548
10.38 566
10.4 528
10.42 485
10.44 517
10.46 498
10.48 547
10.5 514
10.52 503
10.54 513
10.56 501
10.58 506
10.6 516
10.62 555
10.64 521
10.66 509
10.68 530
10.7 547
10.72 547
10.74 561
10.76 585
10.78 590
10.8 583
10.82 616
10.84 630
10.86 617
10.88 653
10.9 715
10.92 714
10.94 723
10.96 695
10.98 632
11 677
11.02 625
11.04 658
11.06 671
11.08 634
11.1 648
11.12 622
11.14 623
11.16 587
11.18 537
11.2 519
11.22 509
11.24 496
11.26 504
11.28 498
11.3 506
11.32 498
11.34 509
11.36 518
11.38 522
11.4 519
11.42 513
11.44 521
11.46 512
11.48 522
11.5 495
11.52 532
11.54 518
11.56 565
11.58 543
11.6 565
11.62 562
11.64 537
11.66 487
11.68 569
11.7 558
11.72 519
11.74 541
11.76 498
11.78 515
11.8 533
11.82 472
11.84 528
11.86 524
11.88 518
11.9 543
11.92 490
11.94 506
11.96 522
11.98 489
12 537
12.02 512
12.04 517
12.06 539
12.08 515
12.1 501
12.12 507
12.14 532
12.16 520
12.18 518
12.2 524
12.22 526
12.24 516
12.26 549
12.28 514
12.3 516
12.32 539
12.34 588
12.36 492
12.38 579
12.4 542
12.42 539
12.44 548
12.46 523
12.48 530
12.5 501
12.52 510
12.54 538
12.56 511
12.58 496
12.6 536
12.62 513
12.64 514
12.66 547
12.68 487
12.7 532
12.72 513
12.74 533
12.76 561
12.78 499
12.8 517
12.82 504
12.84 508
12.86 537
12.88 516
12.9 516
12.92 538
12.94 502
12.96 500
12.98 491
13 541
13.02 511
13.04 528
13.06 525
13.08 516
13.1 514
13.12 517
13.14 537
13.16 544
13.18 530
13.2 565
13.22 556
13.24 539
13.26 538
13.28 560
13.3 569
13.32 548
13.34 582
13.36 602
13.38 598
13.4 590
13.42 580
13.44 637
13.46 580
13.48 573
13.5 614
13.52 591
13.54 546
13.56 541
13.58 551
13.6 582
13.62 555
13.64 552
13.66 515
13.68 544
13.7 541
13.72 536
13.74 570
13.76 573
13.78 543
13.8 547
13.82 564
13.84 519
13.86 559
13.88 583
13.9 565
13.92 535
13.94 558
13.96 537
13.98 576
14 556
14.02 555
14.04 602
14.06 589
14.08 573
14.1 565
14.12 611
14.14 578
14.16 547
14.18 565
14.2 596
14.22 525
14.24 578
14.26 620
14.28 552
14.3 570
14.32 591
14.34 565
14.36 586
14.38 589
14.4 632
14.42 624
14.44 603
14.46 603
14.48 600
14.5 592
14.52 597
14.54 599
14.56 628
14.58 561
14.6 566
14.62 615
14.64 579
14.66 650
14.68 625
14.7 612
14.72 611
14.74 578
14.76 616
14.78 640
14.8 634
14.82 647
14.84 631
14.86 617
14.88 609
14.9 615
14.92 638
14.94 644
14.96 570
14.98 613
15 595
15.02 623
15.04 637
15.06 627
15.08 614
15.1 617
15.12 599
15.14 624
15.16 621
15.18 641
15.2 608
15.22 651
15.24 640
15.26 628
15.28 623
15.3 651
15.32 629
15.34 648
15.36 660
15.38 662
15.4 591
15.42 611
15.44 631
15.46 607
15.48 617
15.5 675
15.52 646
15.54 679
15.56 673
15.58 634
15.6 648
15.62 676
15.64 649
15.66 608
15.68 657
15.7 694
15.72 672
15.74 668
15.76 688
15.78 684
15.8 685
15.82 669
15.84 655
15.86 678
15.88 702
15.9 720
15.92 682
15.94 692
15.96 653
15.98 690
16 699
16.02 626
16.04 716
16.06 718
16.08 678
16.1 706
16.12 670
16.14 715
16.16 746
16.18 701
16.2 677
16.22 729
16.24 758
16.26 742
16.28 716
16.3 728
16.32 698
16.34 728
16.36 783
16.38 724
16.4 761
16.42 734
16.44 764
16.46 738
16.48 748
16.5 744
16.52 746
16.54 772
16.56 769
16.58 757
16.6 786
16.62 765
16.64 763
16.66 770
16.68 773
16.7 796
16.72 753
16.74 769
16.76 854
16.78 815
16.8 822
16.82 814
16.84 823
16.86 815
16.88 826
16.9 910
16.92 938
16.94 983
16.96 1014
16.98 1192
17 1295
17.02 1482
17.04 1479
17.06 1581
17.08 1799
17.1 2079
17.12 2273
17.14 2989
17.16 3258
17.18 3072
17.2 2512
17.22 1845
17.24 1301
17.26 1030
17.28 902
17.3 897
17.32 946
17.34 897
17.36 836
17.38 871
17.4 885
17.42 915
17.44 917
17.46 855
17.48 877
17.5 850
17.52 860
17.54 871
17.56 856
17.58 969
17.6 890
17.62 888
17.64 867
17.66 877
17.68 907
17.7 932
17.72 877
17.74 890
17.76 873
17.78 867
17.8 904
17.82 905
17.84 921
17.86 943
17.88 938
17.9 924
17.92 885
17.94 925
17.96 884
17.98 935
18 921
18.02 932
18.04 943
18.06 969
18.08 925
18.1 962
18.12 968
18.14 972
18.16 952
18.18 961
18.2 981
18.22 983
18.24 997
18.26 915
18.28 887
18.3 948
18.32 934
18.34 937
18.36 1021
18.38 978
18.4 967
18.42 963
18.44 1020
18.46 964
18.48 981
18.5 977
18.52 963
18.54 999
18.56 1053
18.58 1029
18.6 1063
18.62 977
18.64 1016
18.66 1036
18.68 1027
18.7 994
18.72 1023
18.74 1036
18.76 982
18.78 1034
18.8 981
18.82 1009
18.84 1072
18.86 1061
18.88 1069
18.9 1096
18.92 1039
18.94 1036
18.96 1094
18.98 1034
19 1086
19.02 1120
19.04 1058
19.06 1099
19.08 1066
19.1 1094
19.12 1089
19.14 1118
19.16 1214
19.18 1168
19.2 1105
19.22 1127
19.24 1086
19.26 1120
19.28 1164
19.3 1158
19.32 1188
19.34 1208
19.36 1193
19.38 1090
19.4 1113
19.42 1210
19.44 1188
19.46 1158
19.48 1222
19.5 1221
19.52 1201
19.54 1231
19.56 1245
19.58 1318
19.6 1292
19.62 1272
19.64 1235
19.66 1231
19.68 1210
19.7 1228
19.72 1268
19.74 1214
19.76 1199
19.78 1234
19.8 1248
19.82 1216
19.84 1195
19.86 1135
19.88 1220
19.9 1186
19.92 1209
19.94 1247
19.96 1244
19.98 1234
20 1246