File: xrd-UiO-67/pxrddata/37-30.ASC
3 3106
3.02 2958
3.04 2723
3.06 2589
3.08 2595
3.1 2529
3.12 2421
3.14 2308
3.16 2328
3.18 2322
3.2 2253
3.22 2209
3.24 2274
3.26 2181
3.28 2155
3.3 2194
3.32 2160
3.34 2020
3.36 2046
3.38 1968
3.4 2009
3.42 1945
3.44 1870
3.46 1893
3.48 1890
3.5 1846
3.52 1815
3.54 1808
3.56 1751
3.58 1777
3.6 1776
3.62 1702
3.64 1798
3.66 1724
3.68 1674
3.7 1672
3.72 1644
3.74 1605
3.76 1602
3.78 1598
3.8 1593
3.82 1569
3.84 1532
3.86 1552
3.88 1530
3.9 1569
3.92 1495
3.94 1455
3.96 1493
3.98 1467
4 1461
4.02 1411
4.04 1416
4.06 1413
4.08 1383
4.1 1423
4.12 1367
4.14 1384
4.16 1324
4.18 1330
4.2 1299
4.22 1302
4.24 1223
4.26 1268
4.28 1337
4.3 1226
4.32 1277
4.34 1305
4.36 1289
4.38 1192
4.4 1202
4.42 1214
4.44 1201
4.46 1188
4.48 1250
4.5 1213
4.52 1185
4.54 1121
4.56 1174
4.58 1135
4.6 1146
4.62 1154
4.64 1161
4.66 1103
4.68 1130
4.7 1116
4.72 1181
4.74 1107
4.76 1060
4.78 1046
4.8 1082
4.82 1032
4.84 1016
4.86 1033
4.88 1052
4.9 1068
4.92 1091
4.94 941
4.96 1018
4.98 1062
5 993
5.02 975
5.04 967
5.06 988
5.08 972
5.1 977
5.12 956
5.14 982
5.16 928
5.18 950
5.2 1019
5.22 990
5.24 941
5.26 970
5.28 902
5.3 921
5.32 958
5.34 907
5.36 904
5.38 945
5.4 932
5.42 846
5.44 934
5.46 911
5.48 887
5.5 852
5.52 869
5.54 879
5.56 875
5.58 828
5.6 850
5.62 815
5.64 864
5.66 861
5.68 763
5.7 834
5.72 849
5.74 852
5.76 823
5.78 824
5.8 773
5.82 836
5.84 803
5.86 797
5.88 765
5.9 798
5.92 799
5.94 848
5.96 796
5.98 841
6 773
6.02 777
6.04 754
6.06 760
6.08 767
6.1 755
6.12 736
6.14 759
6.16 770
6.18 734
6.2 743
6.22 746
6.24 770
6.26 690
6.28 710
6.3 723
6.32 745
6.34 701
6.36 684
6.38 672
6.4 681
6.42 720
6.44 699
6.46 658
6.48 664
6.5 701
6.52 679
6.54 717
6.56 730
6.58 707
6.6 744
6.62 692
6.64 733
6.66 715
6.68 699
6.7 674
6.72 680
6.74 682
6.76 684
6.78 648
6.8 713
6.82 683
6.84 688
6.86 653
6.88 634
6.9 668
6.92 708
6.94 600
6.96 720
6.98 659
7 620
7.02 664
7.04 675
7.06 674
7.08 693
7.1 629
7.12 656
7.14 647
7.16 681
7.18 632
7.2 664
7.22 639
7.24 687
7.26 678
7.28 664
7.3 581
7.32 601
7.34 656
7.36 649
7.38 658
7.4 623
7.42 613
7.44 683
7.46 633
7.48 675
7.5 653
7.52 623
7.54 623
7.56 664
7.58 642
7.6 625
7.62 662
7.64 643
7.66 645
7.68 652
7.7 614
7.72 622
7.74 588
7.76 643
7.78 666
7.8 645
7.82 575
7.84 618
7.86 648
7.88 652
7.9 604
7.92 613
7.94 619
7.96 602
7.98 634
8 628
8.02 582
8.04 612
8.06 581
8.08 585
8.1 573
8.12 572
8.14 592
8.16 592
8.18 618
8.2 596
8.22 603
8.24 598
8.26 609
8.28 620
8.3 655
8.32 612
8.34 542
8.36 593
8.38 621
8.4 629
8.42 606
8.44 593
8.46 587
8.48 598
8.5 619
8.52 613
8.54 605
8.56 596
8.58 577
8.6 609
8.62 587
8.64 649
8.66 575
8.68 609
8.7 625
8.72 611
8.74 577
8.76 619
8.78 586
8.8 565
8.82 588
8.84 602
8.86 581
8.88 579
8.9 606
8.92 586
8.94 631
8.96 573
8.98 628
9 631
9.02 562
9.04 584
9.06 587
9.08 587
9.1 585
9.12 600
9.14 574
9.16 598
9.18 598
9.2 614
9.22 593
9.24 588
9.26 564
9.28 585
9.3 611
9.32 600
9.34 595
9.36 588
9.38 626
9.4 582
9.42 609
9.44 586
9.46 575
9.48 580
9.5 564
9.52 597
9.54 632
9.56 609
9.58 545
9.6 565
9.62 592
9.64 596
9.66 557
9.68 558
9.7 522
9.72 597
9.74 531
9.76 584
9.78 573
9.8 584
9.82 556
9.84 548
9.86 565
9.88 575
9.9 529
9.92 540
9.94 558
9.96 575
9.98 538
10 526
10.02 562
10.04 564
10.06 562
10.08 576
10.1 541
10.12 509
10.14 511
10.16 524
10.18 530
10.2 542
10.22 555
10.24 554
10.26 622
10.28 539
10.3 536
10.32 545
10.34 546
10.36 544
10.38 552
10.4 547
10.42 587
10.44 538
10.46 571
10.48 515
10.5 520
10.52 563
10.54 512
10.56 523
10.58 518
10.6 563
10.62 546
10.64 545
10.66 493
10.68 544
10.7 559
10.72 561
10.74 552
10.76 541
10.78 541
10.8 528
10.82 515
10.84 527
10.86 547
10.88 488
10.9 548
10.92 504
10.94 539
10.96 488
10.98 527
11 520
11.02 552
11.04 523
11.06 532
11.08 549
11.1 532
11.12 525
11.14 563
11.16 497
11.18 511
11.2 531
11.22 535
11.24 531
11.26 542
11.28 495
11.3 546
11.32 539
11.34 545
11.36 527
11.38 539
11.4 495
11.42 500
11.44 533
11.46 521
11.48 539
11.5 496
11.52 558
11.54 533
11.56 518
11.58 494
11.6 543
11.62 514
11.64 471
11.66 510
11.68 492
11.7 561
11.72 509
11.74 472
11.76 499
11.78 539
11.8 558
11.82 528
11.84 491
11.86 497
11.88 527
11.9 543
11.92 508
11.94 506
11.96 488
11.98 505
12 479
12.02 499
12.04 529
12.06 484
12.08 547
12.1 526
12.12 517
12.14 537
12.16 502
12.18 539
12.2 528
12.22 550
12.24 534
12.26 569
12.28 515
12.3 560
12.32 527
12.34 490
12.36 532
12.38 514
12.4 504
12.42 515
12.44 514
12.46 512
12.48 506
12.5 528
12.52 502
12.54 515
12.56 493
12.58 539
12.6 535
12.62 477
12.64 546
12.66 555
12.68 523
12.7 524
12.72 504
12.74 503
12.76 505
12.78 535
12.8 536
12.82 533
12.84 546
12.86 532
12.88 553
12.9 522
12.92 537
12.94 540
12.96 546
12.98 519
13 518
13.02 544
13.04 518
13.06 493
13.08 560
13.1 527
13.12 536
13.14 510
13.16 535
13.18 504
13.2 560
13.22 562
13.24 577
13.26 551
13.28 541
13.3 541
13.32 541
13.34 513
13.36 589
13.38 561
13.4 542
13.42 566
13.44 555
13.46 502
13.48 553
13.5 547
13.52 561
13.54 529
13.56 519
13.58 524
13.6 512
13.62 583
13.64 573
13.66 528
13.68 538
13.7 521
13.72 514
13.74 534
13.76 545
13.78 531
13.8 540
13.82 544
13.84 543
13.86 569
13.88 526
13.9 549
13.92 547
13.94 573
13.96 561
13.98 567
14 578
14.02 555
14.04 548
14.06 580
14.08 567
14.1 550
14.12 560
14.14 501
14.16 526
14.18 543
14.2 583
14.22 593
14.24 517
14.26 553
14.28 614
14.3 539
14.32 594
14.34 571
14.36 603
14.38 543
14.4 590
14.42 552
14.44 603
14.46 582
14.48 569
14.5 592
14.52 604
14.54 583
14.56 555
14.58 576
14.6 611
14.62 535
14.64 527
14.66 574
14.68 573
14.7 618
14.72 575
14.74 551
14.76 573
14.78 564
14.8 566
14.82 612
14.84 607
14.86 608
14.88 588
14.9 566
14.92 583
14.94 574
14.96 560
14.98 569
15 564
15.02 608
15.04 587
15.06 559
15.08 561
15.1 600
15.12 595
15.14 616
15.16 617
15.18 624
15.2 627
15.22 626
15.24 584
15.26 602
15.28 610
15.3 622
15.32 612
15.34 582
15.36 591
15.38 601
15.4 573
15.42 600
15.44 634
15.46 607
15.48 640
15.5 644
15.52 601
15.54 573
15.56 619
15.58 658
15.6 581
15.62 645
15.64 603
15.66 613
15.68 585
15.7 650
15.72 658
15.74 614
15.76 608
15.78 630
15.8 587
15.82 613
15.84 651
15.86 653
15.88 657
15.9 635
15.92 659
15.94 623
15.96 642
15.98 643
16 623
16.02 618
16.04 616
16.06 644
16.08 591
16.1 728
16.12 651
16.14 621
16.16 690
16.18 663
16.2 644
16.22 655
16.24 587
16.26 683
16.28 651
16.3 657
16.32 622
16.34 656
16.36 681
16.38 683
16.4 624
16.42 605
16.44 691
16.46 659
16.48 654
16.5 681
16.52 689
16.54 689
16.56 710
16.58 653
16.6 673
16.62 723
16.64 703
16.66 741
16.68 672
16.7 714
16.72 723
16.74 754
16.76 767
16.78 787
16.8 802
16.82 881
16.84 907
16.86 904
16.88 1046
16.9 1164
16.92 1377
16.94 1431
16.96 1504
16.98 1407
17 1366
17.02 1091
17.04 987
17.06 828
17.08 768
17.1 773
17.12 721
17.14 757
17.16 744
17.18 701
17.2 732
17.22 758
17.24 737
17.26 695
17.28 749
17.3 686
17.32 709
17.34 709
17.36 736
17.38 767
17.4 733
17.42 726
17.44 747
17.46 775
17.48 745
17.5 736
17.52 775
17.54 724
17.56 710
17.58 761
17.6 719
17.62 771
17.64 733
17.66 786
17.68 795
17.7 744
17.72 738
17.74 732
17.76 748
17.78 720
17.8 757
17.82 762
17.84 788
17.86 784
17.88 707
17.9 742
17.92 717
17.94 756
17.96 772
17.98 853
18 789
18.02 779
18.04 784
18.06 783
18.08 778
18.1 767
18.12 821
18.14 784
18.16 782
18.18 815
18.2 796
18.22 841
18.24 796
18.26 782
18.28 810
18.3 772
18.32 835
18.34 815
18.36 769
18.38 808
18.4 849
18.42 851
18.44 824
18.46 838
18.48 836
18.5 769
18.52 839
18.54 812
18.56 859
18.58 831
18.6 788
18.62 788
18.64 838
18.66 877
18.68 858
18.7 828
18.72 856
18.74 843
18.76 883
18.78 841
18.8 805
18.82 818
18.84 841
18.86 892
18.88 874
18.9 806
18.92 882
18.94 871
18.96 851
18.98 861
19 832
19.02 858
19.04 868
19.06 872
19.08 952
19.1 867
19.12 851
19.14 842
19.16 919
19.18 847
19.2 909
19.22 854
19.24 888
19.26 941
19.28 892
19.3 850
19.32 905
19.34 890
19.36 893
19.38 892
19.4 882
19.42 913
19.44 940
19.46 961
19.48 960
19.5 893
19.52 890
19.54 933
19.56 976
19.58 938
19.6 918
19.62 943
19.64 929
19.66 910
19.68 929
19.7 892
19.72 968
19.74 945
19.76 958
19.78 916
19.8 953
19.82 967
19.84 886
19.86 994
19.88 904
19.9 915
19.92 946
19.94 1014
19.96 921
19.98 964
20 964