File: xrd-UiO-67/pxrddata/37-37.ASC
3 2489
3.02 2322
3.04 2204
3.06 2154
3.08 2022
3.1 1888
3.12 1858
3.14 1781
3.16 1735
3.18 1691
3.2 1692
3.22 1625
3.24 1671
3.26 1639
3.28 1617
3.3 1641
3.32 1637
3.34 1547
3.36 1582
3.38 1584
3.4 1590
3.42 1555
3.44 1501
3.46 1498
3.48 1541
3.5 1507
3.52 1518
3.54 1446
3.56 1486
3.58 1481
3.6 1483
3.62 1500
3.64 1358
3.66 1432
3.68 1432
3.7 1438
3.72 1406
3.74 1413
3.76 1419
3.78 1378
3.8 1432
3.82 1423
3.84 1434
3.86 1444
3.88 1413
3.9 1399
3.92 1351
3.94 1386
3.96 1459
3.98 1482
4 1481
4.02 1500
4.04 1576
4.06 1567
4.08 1529
4.1 1550
4.12 1467
4.14 1448
4.16 1436
4.18 1402
4.2 1385
4.22 1383
4.24 1360
4.26 1303
4.28 1267
4.3 1248
4.32 1275
4.34 1242
4.36 1166
4.38 1254
4.4 1201
4.42 1169
4.44 1238
4.46 1188
4.48 1219
4.5 1232
4.52 1180
4.54 1181
4.56 1214
4.58 1202
4.6 1198
4.62 1218
4.64 1213
4.66 1200
4.68 1200
4.7 1188
4.72 1244
4.74 1216
4.76 1231
4.78 1225
4.8 1245
4.82 1274
4.84 1257
4.86 1239
4.88 1325
4.9 1289
4.92 1275
4.94 1350
4.96 1350
4.98 1317
5 1413
5.02 1456
5.04 1407
5.06 1496
5.08 1514
5.1 1512
5.12 1694
5.14 1645
5.16 1737
5.18 1787
5.2 1861
5.22 1875
5.24 1983
5.26 2101
5.28 2209
5.3 2371
5.32 2522
5.34 2657
5.36 2782
5.38 3077
5.4 3442
5.42 3714
5.44 3880
5.46 3899
5.48 3691
5.5 2985
5.52 2638
5.54 2579
5.56 2474
5.58 2338
5.6 2562
5.62 2397
5.64 2455
5.66 2522
5.68 2624
5.7 2757
5.72 2918
5.74 3043
5.76 3336
5.78 3442
5.8 3374
5.82 3224
5.84 2935
5.86 2349
5.88 1953
5.9 1565
5.92 1349
5.94 1211
5.96 1120
5.98 1016
6 957
6.02 983
6.04 928
6.06 931
6.08 955
6.1 914
6.12 842
6.14 889
6.16 809
6.18 862
6.2 809
6.22 872
6.24 832
6.26 876
6.28 819
6.3 850
6.32 837
6.34 786
6.36 778
6.38 810
6.4 770
6.42 831
6.44 801
6.46 834
6.48 804
6.5 800
6.52 816
6.54 787
6.56 816
6.58 810
6.6 869
6.62 773
6.64 837
6.66 813
6.68 896
6.7 887
6.72 904
6.74 871
6.76 915
6.78 890
6.8 847
6.82 879
6.84 884
6.86 824
6.88 784
6.9 715
6.92 730
6.94 687
6.96 724
6.98 731
7 690
7.02 736
7.04 727
7.06 724
7.08 670
7.1 672
7.12 647
7.14 641
7.16 672
7.18 687
7.2 651
7.22 680
7.24 702
7.26 692
7.28 682
7.3 685
7.32 651
7.34 656
7.36 701
7.38 663
7.4 622
7.42 627
7.44 633
7.46 685
7.48 659
7.5 676
7.52 606
7.54 624
7.56 603
7.58 664
7.6 614
7.62 649
7.64 709
7.66 662
7.68 644
7.7 650
7.72 673
7.74 647
7.76 627
7.78 635
7.8 639
7.82 663
7.84 632
7.86 665
7.88 636
7.9 629
7.92 692
7.94 617
7.96 671
7.98 697
8 633
8.02 651
8.04 670
8.06 661
8.08 649
8.1 677
8.12 676
8.14 691
8.16 598
8.18 647
8.2 687
8.22 672
8.24 626
8.26 662
8.28 650
8.3 711
8.32 636
8.34 651
8.36 643
8.38 668
8.4 648
8.42 631
8.44 665
8.46 626
8.48 637
8.5 675
8.52 687
8.54 654
8.56 619
8.58 636
8.6 601
8.62 627
8.64 617
8.66 663
8.68 629
8.7 634
8.72 669
8.74 648
8.76 624
8.78 670
8.8 668
8.82 674
8.84 627
8.86 654
8.88 685
8.9 704
8.92 737
8.94 684
8.96 703
8.98 702
9 677
9.02 686
9.04 753
9.06 766
9.08 743
9.1 765
9.12 795
9.14 841
9.16 844
9.18 855
9.2 964
9.22 945
9.24 1012
9.26 1092
9.28 1161
9.3 1250
9.32 1428
9.34 1623
9.36 1755
9.38 1833
9.4 1475
9.42 1179
9.44 918
9.46 777
9.48 788
9.5 723
9.52 762
9.54 669
9.56 671
9.58 703
9.6 666
9.62 693
9.64 625
9.66 631
9.68 635
9.7 642
9.72 657
9.74 674
9.76 662
9.78 619
9.8 648
9.82 659
9.84 650
9.86 683
9.88 607
9.9 645
9.92 655
9.94 645
9.96 657
9.98 671
10 674
10.02 675
10.04 697
10.06 713
10.08 710
10.1 747
10.12 748
10.14 756
10.16 778
10.18 815
10.2 838
10.22 772
10.24 765
10.26 749
10.28 733
10.3 669
10.32 689
10.34 657
10.36 657
10.38 624
10.4 661
10.42 663
10.44 622
10.46 657
10.48 635
10.5 621
10.52 659
10.54 654
10.56 625
10.58 649
10.6 772
10.62 725
10.64 668
10.66 750
10.68 789
10.7 807
10.72 827
10.74 916
10.76 884
10.78 993
10.8 1024
10.82 1057
10.84 1033
10.86 985
10.88 925
10.9 973
10.92 937
10.94 1019
10.96 1041
10.98 1056
11 1048
11.02 973
11.04 907
11.06 803
11.08 687
11.1 681
11.12 646
11.14 637
11.16 659
11.18 609
11.2 651
11.22 650
11.24 660
11.26 620
11.28 656
11.3 645
11.32 617
11.34 654
11.36 644
11.38 659
11.4 669
11.42 682
11.44 677
11.46 686
11.48 709
11.5 677
11.52 745
11.54 760
11.56 728
11.58 697
11.6 715
11.62 709
11.64 647
11.66 605
11.68 644
11.7 638
11.72 635
11.74 602
11.76 576
11.78 622
11.8 599
11.82 625
11.84 631
11.86 567
11.88 645
11.9 624
11.92 580
11.94 586
11.96 607
11.98 645
12 623
12.02 631
12.04 613
12.06 659
12.08 586
12.1 625
12.12 597
12.14 629
12.16 653
12.18 699
12.2 681
12.22 692
12.24 615
12.26 697
12.28 661
12.3 666
12.32 648
12.34 629
12.36 650
12.38 689
12.4 664
12.42 665
12.44 633
12.46 638
12.48 570
12.5 640
12.52 601
12.54 617
12.56 657
12.58 610
12.6 594
12.62 611
12.64 592
12.66 626
12.68 642
12.7 617
12.72 610
12.74 568
12.76 589
12.78 651
12.8 647
12.82 674
12.84 605
12.86 620
12.88 641
12.9 641
12.92 633
12.94 596
12.96 608
12.98 598
13 618
13.02 573
13.04 579
13.06 611
13.08 630
13.1 612
13.12 610
13.14 663
13.16 605
13.18 636
13.2 615
13.22 683
13.24 593
13.26 586
13.28 625
13.3 658
13.32 656
13.34 691
13.36 692
13.38 671
13.4 649
13.42 682
13.44 648
13.46 646
13.48 674
13.5 665
13.52 683
13.54 703
13.56 661
13.58 688
13.6 665
13.62 642
13.64 648
13.66 694
13.68 654
13.7 626
13.72 666
13.74 659
13.76 685
13.78 704
13.8 618
13.82 672
13.84 660
13.86 623
13.88 645
13.9 633
13.92 666
13.94 649
13.96 624
13.98 636
14 717
14.02 697
14.04 696
14.06 696
14.08 724
14.1 683
14.12 688
14.14 658
14.16 683
14.18 692
14.2 670
14.22 654
14.24 706
14.26 762
14.28 748
14.3 699
14.32 729
14.34 704
14.36 691
14.38 665
14.4 736
14.42 710
14.44 725
14.46 748
14.48 683
14.5 698
14.52 691
14.54 702
14.56 688
14.58 714
14.6 743
14.62 719
14.64 724
14.66 699
14.68 765
14.7 717
14.72 722
14.74 788
14.76 722
14.78 725
14.8 722
14.82 790
14.84 755
14.86 739
14.88 701
14.9 708
14.92 720
14.94 675
14.96 732
14.98 724
15 740
15.02 745
15.04 726
15.06 773
15.08 685
15.1 752
15.12 705
15.14 724
15.16 765
15.18 776
15.2 738
15.22 746
15.24 795
15.26 730
15.28 756
15.3 725
15.32 801
15.34 725
15.36 756
15.38 790
15.4 728
15.42 733
15.44 777
15.46 762
15.48 724
15.5 709
15.52 793
15.54 715
15.56 748
15.58 729
15.6 750
15.62 742
15.64 725
15.66 757
15.68 744
15.7 798
15.72 783
15.74 757
15.76 730
15.78 733
15.8 745
15.82 791
15.84 776
15.86 755
15.88 779
15.9 769
15.92 794
15.94 791
15.96 801
15.98 814
16 826
16.02 841
16.04 772
16.06 795
16.08 772
16.1 782
16.12 839
16.14 821
16.16 833
16.18 817
16.2 837
16.22 843
16.24 829
16.26 868
16.28 905
16.3 909
16.32 840
16.34 858
16.36 840
16.38 864
16.4 819
16.42 835
16.44 848
16.46 865
16.48 830
16.5 878
16.52 839
16.54 878
16.56 836
16.58 856
16.6 839
16.62 838
16.64 899
16.66 827
16.68 890
16.7 865
16.72 878
16.74 908
16.76 907
16.78 869
16.8 913
16.82 936
16.84 916
16.86 910
16.88 906
16.9 923
16.92 967
16.94 1044
16.96 1010
16.98 1049
17 1134
17.02 1259
17.04 1152
17.06 1002
17.08 964
17.1 968
17.12 950
17.14 912
17.16 956
17.18 943
17.2 957
17.22 922
17.24 914
17.26 1002
17.28 939
17.3 991
17.32 963
17.34 935
17.36 951
17.38 963
17.4 932
17.42 948
17.44 983
17.46 1024
17.48 956
17.5 939
17.52 957
17.54 943
17.56 952
17.58 1005
17.6 997
17.62 966
17.64 956
17.66 979
17.68 980
17.7 986
17.72 1025
17.74 1009
17.76 988
17.78 967
17.8 963
17.82 1013
17.84 1002
17.86 1012
17.88 1026
17.9 994
17.92 944
17.94 1020
17.96 989
17.98 1014
18 999
18.02 1008
18.04 1028
18.06 988
18.08 1052
18.1 1062
18.12 1015
18.14 998
18.16 994
18.18 1029
18.2 1026
18.22 1086
18.24 994
18.26 1052
18.28 1006
18.3 1051
18.32 1035
18.34 1048
18.36 1087
18.38 996
18.4 1042
18.42 1106
18.44 988
18.46 1022
18.48 1086
18.5 1091
18.52 1088
18.54 1086
18.56 1122
18.58 1065
18.6 1075
18.62 1093
18.64 1166
18.66 1168
18.68 1148
18.7 1161
18.72 1235
18.74 1198
18.76 1161
18.78 1191
18.8 1132
18.82 1164
18.84 1199
18.86 1151
18.88 1110
18.9 1197
18.92 1168
18.94 1121
18.96 1201
18.98 1200
19 1200
19.02 1224
19.04 1145
19.06 1171
19.08 1273
19.1 1171
19.12 1306
19.14 1243
19.16 1259
19.18 1289
19.2 1231
19.22 1244
19.24 1257
19.26 1181
19.28 1246
19.3 1202
19.32 1225
19.34 1224
19.36 1272
19.38 1288
19.4 1229
19.42 1348
19.44 1414
19.46 1428
19.48 1448
19.5 1417
19.52 1424
19.54 1347
19.56 1428
19.58 1407
19.6 1382
19.62 1354
19.64 1338
19.66 1272
19.68 1273
19.7 1285
19.72 1281
19.74 1334
19.76 1213
19.78 1263
19.8 1294
19.82 1284
19.84 1286
19.86 1299
19.88 1292
19.9 1306
19.92 1368
19.94 1340
19.96 1342
19.98 1276
20 1324