File: xrd-UiO-67/pxrddata/37-31.ASC
3 2668
3.02 2493
3.04 2288
3.06 2224
3.08 2096
3.1 1991
3.12 2006
3.14 1895
3.16 1919
3.18 1890
3.2 1863
3.22 1809
3.24 1824
3.26 1738
3.28 1694
3.3 1681
3.32 1671
3.34 1690
3.36 1724
3.38 1645
3.4 1642
3.42 1632
3.44 1653
3.46 1601
3.48 1615
3.5 1550
3.52 1530
3.54 1571
3.56 1457
3.58 1503
3.6 1510
3.62 1500
3.64 1492
3.66 1442
3.68 1397
3.7 1427
3.72 1400
3.74 1431
3.76 1408
3.78 1377
3.8 1423
3.82 1433
3.84 1432
3.86 1397
3.88 1335
3.9 1372
3.92 1278
3.94 1276
3.96 1341
3.98 1303
4 1365
4.02 1313
4.04 1320
4.06 1318
4.08 1288
4.1 1256
4.12 1266
4.14 1257
4.16 1275
4.18 1223
4.2 1229
4.22 1196
4.24 1257
4.26 1202
4.28 1238
4.3 1223
4.32 1164
4.34 1191
4.36 1154
4.38 1173
4.4 1155
4.42 1121
4.44 1145
4.46 1144
4.48 1102
4.5 1117
4.52 1144
4.54 1076
4.56 1060
4.58 1120
4.6 1102
4.62 1087
4.64 1066
4.66 1087
4.68 1044
4.7 1103
4.72 1044
4.74 1062
4.76 1072
4.78 1072
4.8 1072
4.82 1053
4.84 1098
4.86 1083
4.88 1037
4.9 981
4.92 1035
4.94 1043
4.96 1026
4.98 1030
5 976
5.02 1067
5.04 966
5.06 1035
5.08 1008
5.1 1055
5.12 1044
5.14 1063
5.16 1028
5.18 1033
5.2 1057
5.22 1145
5.24 1091
5.26 1085
5.28 1130
5.3 1159
5.32 1127
5.34 1172
5.36 1293
5.38 1353
5.4 1386
5.42 1313
5.44 1145
5.46 1030
5.48 1039
5.5 1012
5.52 1036
5.54 967
5.56 1013
5.58 982
5.6 978
5.62 994
5.64 993
5.66 1024
5.68 1038
5.7 989
5.72 1006
5.74 1012
5.76 1034
5.78 983
5.8 927
5.82 852
5.84 810
5.86 806
5.88 836
5.9 806
5.92 781
5.94 772
5.96 805
5.98 787
6 759
6.02 767
6.04 797
6.06 792
6.08 730
6.1 765
6.12 735
6.14 776
6.16 731
6.18 707
6.2 723
6.22 661
6.24 739
6.26 765
6.28 703
6.3 720
6.32 745
6.34 737
6.36 745
6.38 749
6.4 708
6.42 656
6.44 678
6.46 729
6.48 702
6.5 706
6.52 700
6.54 736
6.56 713
6.58 706
6.6 697
6.62 709
6.64 706
6.66 696
6.68 718
6.7 681
6.72 694
6.74 657
6.76 684
6.78 625
6.8 652
6.82 684
6.84 677
6.86 652
6.88 658
6.9 698
6.92 639
6.94 674
6.96 663
6.98 651
7 673
7.02 665
7.04 680
7.06 632
7.08 681
7.1 657
7.12 680
7.14 659
7.16 653
7.18 629
7.2 587
7.22 667
7.24 658
7.26 638
7.28 671
7.3 614
7.32 629
7.34 616
7.36 648
7.38 699
7.4 648
7.42 617
7.44 661
7.46 661
7.48 635
7.5 650
7.52 651
7.54 621
7.56 633
7.58 635
7.6 629
7.62 646
7.64 664
7.66 647
7.68 649
7.7 604
7.72 629
7.74 606
7.76 607
7.78 660
7.8 626
7.82 637
7.84 658
7.86 640
7.88 683
7.9 652
7.92 591
7.94 663
7.96 630
7.98 615
8 609
8.02 599
8.04 629
8.06 643
8.08 635
8.1 619
8.12 649
8.14 624
8.16 645
8.18 656
8.2 592
8.22 588
8.24 580
8.26 606
8.28 601
8.3 576
8.32 642
8.34 582
8.36 590
8.38 641
8.4 641
8.42 581
8.44 613
8.46 616
8.48 582
8.5 626
8.52 624
8.54 619
8.56 594
8.58 606
8.6 605
8.62 584
8.64 626
8.66 596
8.68 616
8.7 623
8.72 600
8.74 588
8.76 593
8.78 568
8.8 591
8.82 584
8.84 603
8.86 607
8.88 613
8.9 541
8.92 599
8.94 560
8.96 619
8.98 603
9 585
9.02 580
9.04 571
9.06 609
9.08 621
9.1 644
9.12 630
9.14 648
9.16 606
9.18 637
9.2 679
9.22 675
9.24 699
9.26 680
9.28 792
9.3 749
9.32 773
9.34 785
9.36 678
9.38 676
9.4 613
9.42 611
9.44 637
9.46 587
9.48 579
9.5 603
9.52 575
9.54 599
9.56 589
9.58 554
9.6 575
9.62 606
9.64 597
9.66 589
9.68 534
9.7 603
9.72 599
9.74 577
9.76 589
9.78 564
9.8 561
9.82 598
9.84 564
9.86 578
9.88 557
9.9 593
9.92 586
9.94 592
9.96 551
9.98 547
10 581
10.02 582
10.04 569
10.06 587
10.08 568
10.1 560
10.12 572
10.14 581
10.16 570
10.18 619
10.2 557
10.22 590
10.24 587
10.26 566
10.28 596
10.3 551
10.32 528
10.34 555
10.36 535
10.38 596
10.4 566
10.42 548
10.44 558
10.46 540
10.48 552
10.5 606
10.52 521
10.54 551
10.56 584
10.58 557
10.6 580
10.62 580
10.64 555
10.66 594
10.68 615
10.7 609
10.72 652
10.74 643
10.76 607
10.78 608
10.8 626
10.82 589
10.84 582
10.86 641
10.88 567
10.9 611
10.92 606
10.94 611
10.96 625
10.98 568
11 558
11.02 544
11.04 568
11.06 517
11.08 556
11.1 541
11.12 560
11.14 554
11.16 588
11.18 557
11.2 565
11.22 518
11.24 524
11.26 562
11.28 547
11.3 538
11.32 551
11.34 517
11.36 540
11.38 526
11.4 572
11.42 572
11.44 561
11.46 563
11.48 558
11.5 544
11.52 568
11.54 601
11.56 587
11.58 537
11.6 554
11.62 554
11.64 564
11.66 583
11.68 517
11.7 570
11.72 534
11.74 585
11.76 586
11.78 538
11.8 548
11.82 534
11.84 587
11.86 551
11.88 579
11.9 565
11.92 572
11.94 539
11.96 517
11.98 559
12 558
12.02 564
12.04 563
12.06 583
12.08 570
12.1 562
12.12 551
12.14 543
12.16 574
12.18 575
12.2 581
12.22 561
12.24 574
12.26 565
12.28 553
12.3 571
12.32 565
12.34 563
12.36 593
12.38 572
12.4 568
12.42 575
12.44 567
12.46 519
12.48 570
12.5 571
12.52 604
12.54 551
12.56 544
12.58 563
12.6 559
12.62 536
12.64 539
12.66 562
12.68 605
12.7 578
12.72 561
12.74 542
12.76 610
12.78 603
12.8 589
12.82 594
12.84 580
12.86 594
12.88 574
12.9 612
12.92 578
12.94 530
12.96 597
12.98 581
13 568
13.02 542
13.04 596
13.06 598
13.08 564
13.1 517
13.12 578
13.14 564
13.16 546
13.18 608
13.2 605
13.22 566
13.24 561
13.26 601
13.28 525
13.3 596
13.32 628
13.34 547
13.36 597
13.38 608
13.4 577
13.42 622
13.44 570
13.46 599
13.48 610
13.5 602
13.52 554
13.54 575
13.56 592
13.58 583
13.6 627
13.62 639
13.64 560
13.66 641
13.68 588
13.7 583
13.72 615
13.74 615
13.76 604
13.78 618
13.8 590
13.82 625
13.84 598
13.86 621
13.88 634
13.9 618
13.92 608
13.94 607
13.96 604
13.98 596
14 604
14.02 617
14.04 602
14.06 658
14.08 636
14.1 606
14.12 615
14.14 643
14.16 618
14.18 661
14.2 605
14.22 648
14.24 664
14.26 606
14.28 613
14.3 665
14.32 671
14.34 631
14.36 613
14.38 635
14.4 653
14.42 670
14.44 620
14.46 670
14.48 638
14.5 645
14.52 665
14.54 648
14.56 636
14.58 644
14.6 619
14.62 654
14.64 669
14.66 669
14.68 597
14.7 687
14.72 659
14.74 677
14.76 672
14.78 688
14.8 639
14.82 638
14.84 701
14.86 654
14.88 667
14.9 688
14.92 666
14.94 693
14.96 668
14.98 684
15 674
15.02 692
15.04 692
15.06 655
15.08 663
15.1 690
15.12 668
15.14 632
15.16 639
15.18 708
15.2 733
15.22 716
15.24 695
15.26 649
15.28 679
15.3 695
15.32 694
15.34 701
15.36 686
15.38 709
15.4 755
15.42 672
15.44 736
15.46 690
15.48 717
15.5 716
15.52 695
15.54 736
15.56 768
15.58 719
15.6 712
15.62 735
15.64 687
15.66 710
15.68 702
15.7 757
15.72 699
15.74 683
15.76 727
15.78 706
15.8 732
15.82 723
15.84 737
15.86 745
15.88 737
15.9 764
15.92 745
15.94 738
15.96 735
15.98 751
16 727
16.02 744
16.04 775
16.06 690
16.08 712
16.1 747
16.12 781
16.14 772
16.16 771
16.18 758
16.2 741
16.22 776
16.24 745
16.26 804
16.28 796
16.3 776
16.32 818
16.34 749
16.36 733
16.38 792
16.4 827
16.42 789
16.44 776
16.46 801
16.48 766
16.5 816
16.52 805
16.54 856
16.56 794
16.58 740
16.6 828
16.62 808
16.64 839
16.66 796
16.68 791
16.7 817
16.72 822
16.74 876
16.76 914
16.78 798
16.8 886
16.82 870
16.84 867
16.86 904
16.88 977
16.9 987
16.92 1014
16.94 1169
16.96 1267
16.98 1292
17 1231
17.02 1065
17.04 930
17.06 904
17.08 820
17.1 817
17.12 877
17.14 902
17.16 868
17.18 910
17.2 846
17.22 826
17.24 866
17.26 876
17.28 894
17.3 920
17.32 945
17.34 899
17.36 884
17.38 939
17.4 933
17.42 945
17.44 981
17.46 876
17.48 970
17.5 994
17.52 925
17.54 919
17.56 924
17.58 926
17.6 959
17.62 849
17.64 902
17.66 938
17.68 908
17.7 870
17.72 952
17.74 991
17.76 955
17.78 948
17.8 997
17.82 974
17.84 991
17.86 1023
17.88 959
17.9 939
17.92 959
17.94 967
17.96 973
17.98 950
18 971
18.02 1019
18.04 958
18.06 979
18.08 965
18.1 966
18.12 982
18.14 986
18.16 1029
18.18 1007
18.2 1015
18.22 996
18.24 1000
18.26 993
18.28 997
18.3 982
18.32 993
18.34 1067
18.36 1019
18.38 1009
18.4 999
18.42 998
18.44 1101
18.46 1053
18.48 1045
18.5 1000
18.52 1041
18.54 1084
18.56 1093
18.58 1046
18.6 1100
18.62 1053
18.64 1048
18.66 1099
18.68 1034
18.7 1095
18.72 1120
18.74 1071
18.76 1114
18.78 1124
18.8 1127
18.82 1050
18.84 1056
18.86 1108
18.88 1082
18.9 1102
18.92 1091
18.94 1071
18.96 1151
18.98 1112
19 1095
19.02 1122
19.04 1169
19.06 1112
19.08 1149
19.1 1101
19.12 1094
19.14 1143
19.16 1132
19.18 1133
19.2 1126
19.22 1126
19.24 1158
19.26 1128
19.28 1144
19.3 1197
19.32 1137
19.34 1141
19.36 1142
19.38 1150
19.4 1147
19.42 1158
19.44 1200
19.46 1228
19.48 1198
19.5 1200
19.52 1150
19.54 1263
19.56 1218
19.58 1260
19.6 1224
19.62 1188
19.64 1186
19.66 1136
19.68 1192
19.7 1205
19.72 1228
19.74 1193
19.76 1224
19.78 1201
19.8 1210
19.82 1239
19.84 1257
19.86 1227
19.88 1178
19.9 1295
19.92 1187
19.94 1195
19.96 1211
19.98 1233
20 1196