File: xrd-UiO-67/pxrddata/37-34.ASC
3 2501
3.02 2397
3.04 2153
3.06 2088
3.08 1969
3.1 1938
3.12 1840
3.14 1813
3.16 1794
3.18 1735
3.2 1707
3.22 1633
3.24 1694
3.26 1635
3.28 1615
3.3 1618
3.32 1591
3.34 1610
3.36 1557
3.38 1548
3.4 1502
3.42 1453
3.44 1433
3.46 1431
3.48 1461
3.5 1443
3.52 1385
3.54 1420
3.56 1426
3.58 1389
3.6 1377
3.62 1312
3.64 1354
3.66 1292
3.68 1272
3.7 1329
3.72 1342
3.74 1223
3.76 1228
3.78 1292
3.8 1223
3.82 1295
3.84 1238
3.86 1152
3.88 1165
3.9 1186
3.92 1149
3.94 1063
3.96 1233
3.98 1146
4 1107
4.02 1129
4.04 1094
4.06 1071
4.08 1116
4.1 1084
4.12 1094
4.14 1042
4.16 1085
4.18 1038
4.2 1063
4.22 1088
4.24 1000
4.26 1015
4.28 1010
4.3 984
4.32 1021
4.34 991
4.36 1007
4.38 982
4.4 987
4.42 966
4.44 1048
4.46 971
4.48 979
4.5 950
4.52 1013
4.54 943
4.56 898
4.58 944
4.6 965
4.62 947
4.64 969
4.66 937
4.68 909
4.7 902
4.72 968
4.74 927
4.76 860
4.78 847
4.8 894
4.82 930
4.84 897
4.86 887
4.88 911
4.9 871
4.92 868
4.94 872
4.96 867
4.98 812
5 910
5.02 895
5.04 885
5.06 878
5.08 844
5.1 872
5.12 809
5.14 827
5.16 840
5.18 789
5.2 851
5.22 847
5.24 821
5.26 814
5.28 811
5.3 871
5.32 844
5.34 800
5.36 796
5.38 833
5.4 770
5.42 783
5.44 732
5.46 803
5.48 812
5.5 764
5.52 789
5.54 801
5.56 755
5.58 744
5.6 721
5.62 756
5.64 716
5.66 737
5.68 754
5.7 737
5.72 728
5.74 744
5.76 769
5.78 740
5.8 722
5.82 736
5.84 762
5.86 735
5.88 709
5.9 689
5.92 669
5.94 754
5.96 687
5.98 710
6 668
6.02 664
6.04 686
6.06 711
6.08 669
6.1 659
6.12 666
6.14 725
6.16 728
6.18 714
6.2 689
6.22 674
6.24 680
6.26 702
6.28 650
6.3 685
6.32 676
6.34 627
6.36 658
6.38 688
6.4 673
6.42 654
6.44 650
6.46 676
6.48 620
6.5 629
6.52 724
6.54 685
6.56 671
6.58 630
6.6 689
6.62 659
6.64 657
6.66 653
6.68 631
6.7 625
6.72 652
6.74 642
6.76 639
6.78 657
6.8 686
6.82 656
6.84 648
6.86 646
6.88 631
6.9 635
6.92 624
6.94 603
6.96 594
6.98 625
7 664
7.02 640
7.04 638
7.06 589
7.08 612
7.1 624
7.12 629
7.14 635
7.16 609
7.18 632
7.2 592
7.22 617
7.24 680
7.26 631
7.28 592
7.3 611
7.32 611
7.34 597
7.36 604
7.38 586
7.4 585
7.42 642
7.44 626
7.46 598
7.48 647
7.5 584
7.52 614
7.54 623
7.56 642
7.58 589
7.6 636
7.62 630
7.64 602
7.66 602
7.68 608
7.7 624
7.72 562
7.74 582
7.76 577
7.78 561
7.8 669
7.82 596
7.84 598
7.86 627
7.88 578
7.9 599
7.92 613
7.94 597
7.96 620
7.98 611
8 613
8.02 597
8.04 581
8.06 586
8.08 594
8.1 631
8.12 618
8.14 602
8.16 586
8.18 548
8.2 568
8.22 587
8.24 578
8.26 577
8.28 636
8.3 581
8.32 574
8.34 594
8.36 563
8.38 558
8.4 581
8.42 538
8.44 581
8.46 597
8.48 564
8.5 606
8.52 565
8.54 581
8.56 553
8.58 572
8.6 572
8.62 587
8.64 578
8.66 603
8.68 569
8.7 565
8.72 581
8.74 617
8.76 586
8.78 558
8.8 579
8.82 552
8.84 583
8.86 595
8.88 564
8.9 608
8.92 527
8.94 553
8.96 529
8.98 565
9 558
9.02 547
9.04 531
9.06 513
9.08 542
9.1 524
9.12 567
9.14 582
9.16 553
9.18 533
9.2 540
9.22 560
9.24 565
9.26 541
9.28 556
9.3 550
9.32 624
9.34 562
9.36 567
9.38 569
9.4 567
9.42 578
9.44 593
9.46 554
9.48 572
9.5 548
9.52 580
9.54 566
9.56 557
9.58 566
9.6 511
9.62 549
9.64 575
9.66 550
9.68 518
9.7 542
9.72 559
9.74 555
9.76 564
9.78 591
9.8 569
9.82 572
9.84 575
9.86 553
9.88 558
9.9 552
9.92 531
9.94 555
9.96 535
9.98 556
10 521
10.02 530
10.04 562
10.06 525
10.08 524
10.1 541
10.12 529
10.14 532
10.16 532
10.18 559
10.2 521
10.22 570
10.24 532
10.26 545
10.28 500
10.3 527
10.32 536
10.34 511
10.36 548
10.38 524
10.4 526
10.42 547
10.44 562
10.46 532
10.48 542
10.5 514
10.52 519
10.54 551
10.56 525
10.58 487
10.6 518
10.62 539
10.64 501
10.66 547
10.68 534
10.7 539
10.72 500
10.74 526
10.76 563
10.78 609
10.8 565
10.82 569
10.84 581
10.86 563
10.88 567
10.9 550
10.92 518
10.94 514
10.96 523
10.98 548
11 540
11.02 550
11.04 581
11.06 535
11.08 544
11.1 549
11.12 530
11.14 580
11.16 544
11.18 537
11.2 520
11.22 540
11.24 546
11.26 523
11.28 535
11.3 569
11.32 536
11.34 561
11.36 553
11.38 543
11.4 497
11.42 509
11.44 536
11.46 516
11.48 541
11.5 531
11.52 506
11.54 522
11.56 505
11.58 567
11.6 555
11.62 507
11.64 504
11.66 547
11.68 529
11.7 541
11.72 528
11.74 527
11.76 516
11.78 548
11.8 529
11.82 517
11.84 498
11.86 552
11.88 550
11.9 539
11.92 531
11.94 570
11.96 589
11.98 550
12 515
12.02 510
12.04 535
12.06 546
12.08 541
12.1 533
12.12 575
12.14 534
12.16 552
12.18 590
12.2 546
12.22 538
12.24 564
12.26 550
12.28 531
12.3 518
12.32 576
12.34 605
12.36 535
12.38 540
12.4 580
12.42 571
12.44 531
12.46 566
12.48 565
12.5 515
12.52 513
12.54 532
12.56 557
12.58 536
12.6 537
12.62 561
12.64 552
12.66 544
12.68 568
12.7 562
12.72 523
12.74 553
12.76 561
12.78 541
12.8 531
12.82 537
12.84 563
12.86 561
12.88 605
12.9 543
12.92 567
12.94 594
12.96 556
12.98 540
13 559
13.02 572
13.04 553
13.06 556
13.08 574
13.1 559
13.12 572
13.14 573
13.16 547
13.18 540
13.2 545
13.22 542
13.24 592
13.26 575
13.28 570
13.3 556
13.32 546
13.34 585
13.36 571
13.38 572
13.4 564
13.42 585
13.44 560
13.46 553
13.48 581
13.5 586
13.52 554
13.54 582
13.56 612
13.58 566
13.6 572
13.62 573
13.64 586
13.66 591
13.68 549
13.7 614
13.72 579
13.74 570
13.76 583
13.78 584
13.8 609
13.82 610
13.84 585
13.86 528
13.88 601
13.9 598
13.92 558
13.94 588
13.96 585
13.98 586
14 619
14.02 579
14.04 623
14.06 618
14.08 582
14.1 588
14.12 621
14.14 620
14.16 574
14.18 604
14.2 639
14.22 630
14.24 592
14.26 597
14.28 583
14.3 594
14.32 582
14.34 592
14.36 616
14.38 602
14.4 634
14.42 596
14.44 608
14.46 617
14.48 608
14.5 601
14.52 618
14.54 580
14.56 622
14.58 571
14.6 631
14.62 636
14.64 565
14.66 635
14.68 610
14.7 602
14.72 667
14.74 630
14.76 621
14.78 624
14.8 588
14.82 650
14.84 651
14.86 607
14.88 657
14.9 624
14.92 672
14.94 691
14.96 608
14.98 668
15 645
15.02 662
15.04 652
15.06 655
15.08 644
15.1 635
15.12 696
15.14 652
15.16 656
15.18 671
15.2 615
15.22 660
15.24 659
15.26 645
15.28 663
15.3 673
15.32 647
15.34 671
15.36 646
15.38 665
15.4 691
15.42 687
15.44 654
15.46 706
15.48 677
15.5 661
15.52 676
15.54 669
15.56 677
15.58 676
15.6 666
15.62 717
15.64 661
15.66 693
15.68 705
15.7 663
15.72 655
15.74 683
15.76 677
15.78 702
15.8 734
15.82 669
15.84 756
15.86 714
15.88 670
15.9 659
15.92 689
15.94 655
15.96 699
15.98 683
16 690
16.02 703
16.04 673
16.06 699
16.08 677
16.1 718
16.12 709
16.14 731
16.16 713
16.18 661
16.2 651
16.22 744
16.24 707
16.26 732
16.28 738
16.3 730
16.32 750
16.34 729
16.36 753
16.38 706
16.4 761
16.42 721
16.44 666
16.46 752
16.48 785
16.5 720
16.52 751
16.54 750
16.56 751
16.58 700
16.6 782
16.62 755
16.64 768
16.66 759
16.68 709
16.7 775
16.72 777
16.74 748
16.76 789
16.78 785
16.8 761
16.82 838
16.84 798
16.86 941
16.88 888
16.9 914
16.92 946
16.94 1013
16.96 1116
16.98 1253
17 1327
17.02 1370
17.04 1386
17.06 1238
17.08 1009
17.1 992
17.12 880
17.14 829
17.16 792
17.18 851
17.2 826
17.22 840
17.24 835
17.26 823
17.28 858
17.3 798
17.32 757
17.34 844
17.36 824
17.38 816
17.4 815
17.42 793
17.44 787
17.46 838
17.48 849
17.5 820
17.52 841
17.54 827
17.56 827
17.58 842
17.6 816
17.62 874
17.64 903
17.66 901
17.68 798
17.7 860
17.72 898
17.74 793
17.76 848
17.78 862
17.8 843
17.82 908
17.84 895
17.86 835
17.88 823
17.9 877
17.92 919
17.94 915
17.96 884
17.98 940
18 893
18.02 910
18.04 884
18.06 898
18.08 857
18.1 903
18.12 878
18.14 923
18.16 935
18.18 859
18.2 940
18.22 925
18.24 942
18.26 905
18.28 951
18.3 855
18.32 911
18.34 947
18.36 931
18.38 913
18.4 943
18.42 936
18.44 927
18.46 982
18.48 977
18.5 960
18.52 954
18.54 912
18.56 923
18.58 962
18.6 951
18.62 1004
18.64 962
18.66 946
18.68 996
18.7 947
18.72 968
18.74 962
18.76 979
18.78 976
18.8 1009
18.82 983
18.84 981
18.86 980
18.88 968
18.9 959
18.92 1007
18.94 1016
18.96 1002
18.98 981
19 1007
19.02 987
19.04 1025
19.06 1028
19.08 1067
19.1 1019
19.12 1077
19.14 1022
19.16 1066
19.18 1105
19.2 1033
19.22 997
19.24 1074
19.26 1031
19.28 999
19.3 980
19.32 1058
19.34 1052
19.36 1048
19.38 1091
19.4 999
19.42 1059
19.44 998
19.46 1045
19.48 1076
19.5 1049
19.52 1032
19.54 1052
19.56 1035
19.58 1040
19.6 1100
19.62 1114
19.64 1078
19.66 1112
19.68 1057
19.7 1096
19.72 1131
19.74 1119
19.76 1119
19.78 1091
19.8 1063
19.82 1142
19.84 1098
19.86 1145
19.88 1086
19.9 1090
19.92 1163
19.94 1116
19.96 1184
19.98 1066
20 1101