File: xrd-UiO-67/pxrddata/37-35.ASC
3 2403
3.02 2212
3.04 2068
3.06 2044
3.08 1913
3.1 1862
3.12 1844
3.14 1738
3.16 1834
3.18 1711
3.2 1709
3.22 1667
3.24 1701
3.26 1657
3.28 1583
3.3 1621
3.32 1646
3.34 1588
3.36 1579
3.38 1592
3.4 1611
3.42 1591
3.44 1564
3.46 1534
3.48 1518
3.5 1500
3.52 1412
3.54 1423
3.56 1458
3.58 1471
3.6 1391
3.62 1447
3.64 1404
3.66 1443
3.68 1414
3.7 1373
3.72 1323
3.74 1362
3.76 1361
3.78 1382
3.8 1321
3.82 1294
3.84 1261
3.86 1262
3.88 1318
3.9 1315
3.92 1217
3.94 1269
3.96 1264
3.98 1262
4 1223
4.02 1236
4.04 1232
4.06 1181
4.08 1184
4.1 1163
4.12 1151
4.14 1182
4.16 1221
4.18 1228
4.2 1206
4.22 1146
4.24 1126
4.26 1126
4.28 1123
4.3 1087
4.32 1122
4.34 1087
4.36 1143
4.38 1081
4.4 1089
4.42 1048
4.44 1076
4.46 1105
4.48 1071
4.5 1037
4.52 1107
4.54 1076
4.56 1094
4.58 1070
4.6 1037
4.62 1085
4.64 1013
4.66 1000
4.68 1037
4.7 970
4.72 1039
4.74 1020
4.76 999
4.78 974
4.8 970
4.82 954
4.84 973
4.86 920
4.88 954
4.9 989
4.92 1003
4.94 1025
4.96 960
4.98 929
5 936
5.02 974
5.04 986
5.06 903
5.08 935
5.1 952
5.12 921
5.14 938
5.16 877
5.18 955
5.2 973
5.22 909
5.24 914
5.26 930
5.28 865
5.3 967
5.32 961
5.34 894
5.36 892
5.38 911
5.4 967
5.42 921
5.44 948
5.46 974
5.48 928
5.5 938
5.52 971
5.54 932
5.56 910
5.58 883
5.6 853
5.62 861
5.64 872
5.66 785
5.68 790
5.7 776
5.72 806
5.74 809
5.76 827
5.78 779
5.8 827
5.82 823
5.84 811
5.86 759
5.88 808
5.9 748
5.92 759
5.94 763
5.96 705
5.98 752
6 713
6.02 761
6.04 718
6.06 715
6.08 738
6.1 732
6.12 740
6.14 750
6.16 766
6.18 702
6.2 750
6.22 714
6.24 727
6.26 698
6.28 712
6.3 732
6.32 735
6.34 701
6.36 693
6.38 671
6.4 714
6.42 694
6.44 605
6.46 657
6.48 665
6.5 639
6.52 640
6.54 676
6.56 662
6.58 652
6.6 653
6.62 669
6.64 638
6.66 650
6.68 648
6.7 643
6.72 665
6.74 645
6.76 663
6.78 637
6.8 662
6.82 669
6.84 665
6.86 623
6.88 665
6.9 613
6.92 666
6.94 600
6.96 638
6.98 639
7 651
7.02 626
7.04 636
7.06 675
7.08 622
7.1 613
7.12 618
7.14 607
7.16 626
7.18 632
7.2 624
7.22 620
7.24 585
7.26 598
7.28 559
7.3 619
7.32 671
7.34 597
7.36 612
7.38 636
7.4 608
7.42 560
7.44 621
7.46 614
7.48 635
7.5 592
7.52 594
7.54 598
7.56 536
7.58 593
7.6 602
7.62 637
7.64 580
7.66 614
7.68 578
7.7 609
7.72 584
7.74 604
7.76 590
7.78 583
7.8 595
7.82 611
7.84 613
7.86 548
7.88 620
7.9 585
7.92 580
7.94 531
7.96 615
7.98 579
8 589
8.02 574
8.04 530
8.06 563
8.08 534
8.1 542
8.12 569
8.14 558
8.16 588
8.18 565
8.2 577
8.22 588
8.24 562
8.26 565
8.28 557
8.3 634
8.32 579
8.34 555
8.36 569
8.38 552
8.4 579
8.42 515
8.44 570
8.46 541
8.48 527
8.5 568
8.52 552
8.54 593
8.56 578
8.58 566
8.6 554
8.62 588
8.64 573
8.66 568
8.68 541
8.7 590
8.72 560
8.74 564
8.76 551
8.78 553
8.8 556
8.82 579
8.84 542
8.86 550
8.88 555
8.9 588
8.92 545
8.94 561
8.96 541
8.98 556
9 550
9.02 570
9.04 552
9.06 574
9.08 545
9.1 574
9.12 538
9.14 553
9.16 513
9.18 560
9.2 520
9.22 542
9.24 572
9.26 520
9.28 571
9.3 566
9.32 547
9.34 622
9.36 588
9.38 540
9.4 573
9.42 596
9.44 537
9.46 566
9.48 591
9.5 569
9.52 544
9.54 519
9.56 552
9.58 522
9.6 555
9.62 590
9.64 535
9.66 517
9.68 489
9.7 543
9.72 525
9.74 521
9.76 531
9.78 570
9.8 531
9.82 510
9.84 491
9.86 506
9.88 536
9.9 543
9.92 499
9.94 539
9.96 529
9.98 471
10 590
10.02 539
10.04 536
10.06 550
10.08 534
10.1 475
10.12 531
10.14 524
10.16 545
10.18 488
10.2 543
10.22 559
10.24 500
10.26 550
10.28 502
10.3 530
10.32 507
10.34 473
10.36 515
10.38 533
10.4 545
10.42 487
10.44 513
10.46 524
10.48 531
10.5 490
10.52 467
10.54 525
10.56 517
10.58 473
10.6 513
10.62 530
10.64 488
10.66 469
10.68 509
10.7 512
10.72 503
10.74 512
10.76 495
10.78 519
10.8 545
10.82 532
10.84 493
10.86 496
10.88 503
10.9 542
10.92 497
10.94 538
10.96 494
10.98 479
11 470
11.02 503
11.04 517
11.06 530
11.08 484
11.1 500
11.12 504
11.14 528
11.16 510
11.18 492
11.2 525
11.22 481
11.24 485
11.26 495
11.28 475
11.3 495
11.32 490
11.34 497
11.36 535
11.38 472
11.4 484
11.42 491
11.44 549
11.46 552
11.48 509
11.5 491
11.52 472
11.54 508
11.56 468
11.58 490
11.6 510
11.62 495
11.64 488
11.66 509
11.68 508
11.7 484
11.72 478
11.74 504
11.76 460
11.78 476
11.8 477
11.82 470
11.84 442
11.86 505
11.88 479
11.9 467
11.92 454
11.94 491
11.96 487
11.98 495
12 527
12.02 472
12.04 463
12.06 476
12.08 485
12.1 530
12.12 541
12.14 489
12.16 490
12.18 511
12.2 517
12.22 481
12.24 484
12.26 494
12.28 488
12.3 483
12.32 466
12.34 477
12.36 492
12.38 505
12.4 501
12.42 484
12.44 517
12.46 515
12.48 474
12.5 488
12.52 526
12.54 509
12.56 493
12.58 555
12.6 516
12.62 551
12.64 535
12.66 510
12.68 517
12.7 542
12.72 477
12.74 510
12.76 487
12.78 540
12.8 506
12.82 488
12.84 509
12.86 502
12.88 521
12.9 496
12.92 499
12.94 478
12.96 503
12.98 501
13 518
13.02 539
13.04 546
13.06 505
13.08 531
13.1 509
13.12 487
13.14 517
13.16 522
13.18 556
13.2 556
13.22 515
13.24 494
13.26 503
13.28 545
13.3 566
13.32 509
13.34 496
13.36 478
13.38 514
13.4 489
13.42 548
13.44 517
13.46 509
13.48 540
13.5 500
13.52 547
13.54 489
13.56 536
13.58 547
13.6 524
13.62 493
13.64 563
13.66 542
13.68 506
13.7 512
13.72 532
13.74 538
13.76 521
13.78 542
13.8 544
13.82 515
13.84 575
13.86 525
13.88 509
13.9 557
13.92 539
13.94 593
13.96 513
13.98 537
14 534
14.02 553
14.04 534
14.06 598
14.08 520
14.1 563
14.12 530
14.14 550
14.16 519
14.18 511
14.2 502
14.22 572
14.24 577
14.26 521
14.28 566
14.3 551
14.32 554
14.34 598
14.36 557
14.38 564
14.4 566
14.42 597
14.44 592
14.46 565
14.48 558
14.5 536
14.52 538
14.54 572
14.56 553
14.58 587
14.6 579
14.62 579
14.64 579
14.66 583
14.68 554
14.7 614
14.72 587
14.74 560
14.76 583
14.78 608
14.8 611
14.82 585
14.84 572
14.86 604
14.88 593
14.9 586
14.92 617
14.94 537
14.96 593
14.98 589
15 578
15.02 608
15.04 609
15.06 597
15.08 595
15.1 612
15.12 599
15.14 641
15.16 551
15.18 597
15.2 585
15.22 596
15.24 604
15.26 604
15.28 619
15.3 654
15.32 598
15.34 564
15.36 602
15.38 619
15.4 613
15.42 652
15.44 621
15.46 585
15.48 612
15.5 601
15.52 608
15.54 620
15.56 615
15.58 559
15.6 593
15.62 647
15.64 583
15.66 672
15.68 628
15.7 624
15.72 650
15.74 589
15.76 627
15.78 624
15.8 616
15.82 639
15.84 634
15.86 661
15.88 658
15.9 644
15.92 653
15.94 682
15.96 680
15.98 676
16 657
16.02 682
16.04 634
16.06 647
16.08 658
16.1 607
16.12 652
16.14 652
16.16 712
16.18 635
16.2 633
16.22 695
16.24 717
16.26 646
16.28 626
16.3 691
16.32 736
16.34 712
16.36 674
16.38 675
16.4 711
16.42 714
16.44 696
16.46 692
16.48 683
16.5 722
16.52 702
16.54 689
16.56 694
16.58 702
16.6 674
16.62 686
16.64 717
16.66 738
16.68 700
16.7 699
16.72 705
16.74 700
16.76 722
16.78 712
16.8 723
16.82 731
16.84 747
16.86 787
16.88 795
16.9 754
16.92 794
16.94 845
16.96 846
16.98 981
17 1027
17.02 1166
17.04 1292
17.06 1367
17.08 1332
17.1 1362
17.12 1241
17.14 1156
17.16 966
17.18 876
17.2 815
17.22 766
17.24 811
17.26 781
17.28 720
17.3 736
17.32 730
17.34 790
17.36 800
17.38 800
17.4 739
17.42 770
17.44 793
17.46 710
17.48 712
17.5 712
17.52 752
17.54 795
17.56 813
17.58 798
17.6 809
17.62 759
17.64 759
17.66 842
17.68 822
17.7 848
17.72 803
17.74 848
17.76 803
17.78 811
17.8 829
17.82 769
17.84 798
17.86 800
17.88 807
17.9 778
17.92 839
17.94 821
17.96 814
17.98 849
18 828
18.02 832
18.04 823
18.06 832
18.08 840
18.1 849
18.12 825
18.14 814
18.16 847
18.18 865
18.2 838
18.22 864
18.24 910
18.26 878
18.28 883
18.3 787
18.32 843
18.34 838
18.36 803
18.38 905
18.4 887
18.42 874
18.44 836
18.46 897
18.48 838
18.5 895
18.52 844
18.54 901
18.56 898
18.58 897
18.6 890
18.62 841
18.64 839
18.66 980
18.68 913
18.7 918
18.72 990
18.74 914
18.76 942
18.78 938
18.8 928
18.82 967
18.84 931
18.86 931
18.88 882
18.9 894
18.92 904
18.94 972
18.96 939
18.98 961
19 966
19.02 896
19.04 934
19.06 942
19.08 949
19.1 971
19.12 965
19.14 949
19.16 964
19.18 979
19.2 951
19.22 961
19.24 980
19.26 995
19.28 998
19.3 1010
19.32 945
19.34 1010
19.36 984
19.38 975
19.4 980
19.42 1010
19.44 984
19.46 943
19.48 957
19.5 957
19.52 982
19.54 931
19.56 1041
19.58 968
19.6 1052
19.62 1048
19.64 990
19.66 1057
19.68 1004
19.7 994
19.72 1020
19.74 1065
19.76 1034
19.78 1033
19.8 1043
19.82 1059
19.84 1005
19.86 1053
19.88 1058
19.9 1035
19.92 1047
19.94 1059
19.96 1072
19.98 1036
20 1111