File: xrd-UiO-67/pxrddata/37-5.ASC
3 2483
3.02 2288
3.04 2211
3.06 1998
3.08 1952
3.1 1846
3.12 1802
3.14 1783
3.16 1711
3.18 1705
3.2 1749
3.22 1779
3.24 1700
3.26 1665
3.28 1733
3.3 1645
3.32 1601
3.34 1585
3.36 1590
3.38 1562
3.4 1525
3.42 1556
3.44 1577
3.46 1457
3.48 1497
3.5 1487
3.52 1475
3.54 1490
3.56 1496
3.58 1382
3.6 1412
3.62 1413
3.64 1398
3.66 1403
3.68 1426
3.7 1427
3.72 1332
3.74 1280
3.76 1347
3.78 1354
3.8 1295
3.82 1345
3.84 1305
3.86 1223
3.88 1291
3.9 1264
3.92 1266
3.94 1297
3.96 1284
3.98 1234
4 1181
4.02 1211
4.04 1292
4.06 1177
4.08 1188
4.1 1240
4.12 1207
4.14 1186
4.16 1162
4.18 1198
4.2 1168
4.22 1128
4.24 1152
4.26 1124
4.28 1163
4.3 1133
4.32 1100
4.34 1141
4.36 1067
4.38 1094
4.4 1174
4.42 1150
4.44 1070
4.46 1088
4.48 1033
4.5 1000
4.52 1005
4.54 1087
4.56 1017
4.58 1037
4.6 1020
4.62 1040
4.64 1050
4.66 945
4.68 1016
4.7 1015
4.72 986
4.74 1006
4.76 936
4.78 1002
4.8 973
4.82 991
4.84 938
4.86 937
4.88 1011
4.9 942
4.92 884
4.94 900
4.96 948
4.98 966
5 908
5.02 972
5.04 879
5.06 849
5.08 909
5.1 943
5.12 886
5.14 908
5.16 865
5.18 889
5.2 891
5.22 869
5.24 920
5.26 875
5.28 855
5.3 884
5.32 783
5.34 812
5.36 877
5.38 870
5.4 876
5.42 847
5.44 827
5.46 854
5.48 831
5.5 841
5.52 798
5.54 859
5.56 827
5.58 815
5.6 807
5.62 815
5.64 776
5.66 726
5.68 771
5.7 763
5.72 803
5.74 794
5.76 806
5.78 801
5.8 747
5.82 824
5.84 741
5.86 773
5.88 768
5.9 778
5.92 739
5.94 743
5.96 748
5.98 727
6 733
6.02 696
6.04 759
6.06 742
6.08 719
6.1 717
6.12 724
6.14 745
6.16 730
6.18 641
6.2 705
6.22 671
6.24 740
6.26 712
6.28 711
6.3 691
6.32 715
6.34 681
6.36 708
6.38 709
6.4 697
6.42 708
6.44 671
6.46 648
6.48 710
6.5 677
6.52 653
6.54 695
6.56 685
6.58 672
6.6 666
6.62 648
6.64 676
6.66 664
6.68 657
6.7 664
6.72 655
6.74 682
6.76 612
6.78 725
6.8 641
6.82 644
6.84 621
6.86 681
6.88 673
6.9 632
6.92 674
6.94 649
6.96 640
6.98 623
7 620
7.02 697
7.04 627
7.06 617
7.08 649
7.1 661
7.12 678
7.14 656
7.16 656
7.18 655
7.2 663
7.22 645
7.24 650
7.26 653
7.28 635
7.3 610
7.32 621
7.34 659
7.36 631
7.38 647
7.4 640
7.42 571
7.44 672
7.46 645
7.48 582
7.5 639
7.52 627
7.54 629
7.56 600
7.58 622
7.6 646
7.62 630
7.64 598
7.66 614
7.68 571
7.7 612
7.72 613
7.74 592
7.76 575
7.78 593
7.8 625
7.82 627
7.84 584
7.86 645
7.88 587
7.9 618
7.92 647
7.94 587
7.96 631
7.98 591
8 612
8.02 627
8.04 584
8.06 640
8.08 584
8.1 584
8.12 595
8.14 609
8.16 614
8.18 643
8.2 651
8.22 638
8.24 614
8.26 583
8.28 582
8.3 562
8.32 599
8.34 595
8.36 606
8.38 569
8.4 615
8.42 584
8.44 628
8.46 595
8.48 574
8.5 580
8.52 584
8.54 605
8.56 587
8.58 561
8.6 562
8.62 560
8.64 576
8.66 590
8.68 586
8.7 595
8.72 577
8.74 626
8.76 555
8.78 600
8.8 572
8.82 589
8.84 574
8.86 558
8.88 615
8.9 592
8.92 577
8.94 603
8.96 606
8.98 597
9 595
9.02 566
9.04 555
9.06 556
9.08 566
9.1 596
9.12 568
9.14 567
9.16 559
9.18 574
9.2 583
9.22 580
9.24 549
9.26 550
9.28 556
9.3 569
9.32 577
9.34 602
9.36 582
9.38 589
9.4 554
9.42 559
9.44 566
9.46 546
9.48 610
9.5 542
9.52 610
9.54 595
9.56 571
9.58 605
9.6 569
9.62 535
9.64 581
9.66 597
9.68 575
9.7 592
9.72 533
9.74 553
9.76 578
9.78 570
9.8 563
9.82 553
9.84 554
9.86 582
9.88 599
9.9 579
9.92 521
9.94 541
9.96 581
9.98 568
10 546
10.02 568
10.04 558
10.06 530
10.08 549
10.1 558
10.12 511
10.14 555
10.16 562
10.18 533
10.2 522
10.22 524
10.24 512
10.26 570
10.28 535
10.3 537
10.32 553
10.34 503
10.36 521
10.38 572
10.4 587
10.42 532
10.44 526
10.46 499
10.48 553
10.5 533
10.52 571
10.54 559
10.56 498
10.58 554
10.6 573
10.62 573
10.64 561
10.66 494
10.68 538
10.7 511
10.72 545
10.74 493
10.76 534
10.78 527
10.8 515
10.82 504
10.84 487
10.86 535
10.88 574
10.9 571
10.92 555
10.94 549
10.96 520
10.98 545
11 502
11.02 571
11.04 546
11.06 560
11.08 522
11.1 529
11.12 536
11.14 528
11.16 573
11.18 513
11.2 576
11.22 534
11.24 529
11.26 514
11.28 567
11.3 549
11.32 516
11.34 553
11.36 530
11.38 486
11.4 529
11.42 517
11.44 536
11.46 520
11.48 522
11.5 563
11.52 519
11.54 533
11.56 518
11.58 544
11.6 537
11.62 572
11.64 532
11.66 524
11.68 552
11.7 487
11.72 535
11.74 525
11.76 507
11.78 551
11.8 507
11.82 546
11.84 512
11.86 498
11.88 539
11.9 512
11.92 516
11.94 544
11.96 522
11.98 525
12 504
12.02 540
12.04 505
12.06 541
12.08 557
12.1 546
12.12 531
12.14 529
12.16 501
12.18 559
12.2 509
12.22 503
12.24 534
12.26 529
12.28 525
12.3 527
12.32 515
12.34 494
12.36 511
12.38 560
12.4 532
12.42 527
12.44 514
12.46 532
12.48 556
12.5 581
12.52 517
12.54 485
12.56 557
12.58 551
12.6 472
12.62 545
12.64 548
12.66 548
12.68 538
12.7 498
12.72 546
12.74 517
12.76 514
12.78 479
12.8 559
12.82 549
12.84 551
12.86 539
12.88 525
12.9 539
12.92 540
12.94 536
12.96 525
12.98 524
13 541
13.02 563
13.04 585
13.06 539
13.08 557
13.1 541
13.12 524
13.14 573
13.16 553
13.18 536
13.2 574
13.22 566
13.24 553
13.26 541
13.28 536
13.3 550
13.32 540
13.34 579
13.36 571
13.38 518
13.4 538
13.42 501
13.44 557
13.46 526
13.48 521
13.5 550
13.52 519
13.54 573
13.56 558
13.58 526
13.6 535
13.62 554
13.64 549
13.66 554
13.68 539
13.7 608
13.72 544
13.74 549
13.76 526
13.78 556
13.8 530
13.82 595
13.84 530
13.86 597
13.88 579
13.9 576
13.92 567
13.94 551
13.96 554
13.98 551
14 567
14.02 560
14.04 554
14.06 575
14.08 563
14.1 535
14.12 541
14.14 583
14.16 577
14.18 607
14.2 573
14.22 608
14.24 582
14.26 582
14.28 613
14.3 612
14.32 595
14.34 604
14.36 556
14.38 523
14.4 549
14.42 543
14.44 616
14.46 576
14.48 568
14.5 546
14.52 593
14.54 618
14.56 591
14.58 616
14.6 560
14.62 579
14.64 586
14.66 606
14.68 583
14.7 558
14.72 594
14.74 606
14.76 607
14.78 573
14.8 580
14.82 607
14.84 574
14.86 598
14.88 638
14.9 550
14.92 573
14.94 637
14.96 583
14.98 598
15 669
15.02 614
15.04 611
15.06 655
15.08 602
15.1 646
15.12 651
15.14 653
15.16 621
15.18 616
15.2 644
15.22 635
15.24 601
15.26 627
15.28 622
15.3 616
15.32 633
15.34 640
15.36 580
15.38 631
15.4 617
15.42 625
15.44 600
15.46 669
15.48 673
15.5 653
15.52 658
15.54 619
15.56 626
15.58 659
15.6 652
15.62 586
15.64 594
15.66 673
15.68 637
15.7 627
15.72 660
15.74 642
15.76 633
15.78 670
15.8 687
15.82 647
15.84 636
15.86 623
15.88 647
15.9 638
15.92 656
15.94 667
15.96 653
15.98 653
16 685
16.02 642
16.04 689
16.06 633
16.08 674
16.1 676
16.12 679
16.14 632
16.16 696
16.18 665
16.2 682
16.22 631
16.24 622
16.26 651
16.28 697
16.3 653
16.32 653
16.34 670
16.36 715
16.38 694
16.4 650
16.42 615
16.44 685
16.46 700
16.48 718
16.5 685
16.52 688
16.54 685
16.56 718
16.58 731
16.6 705
16.62 716
16.64 733
16.66 743
16.68 738
16.7 827
16.72 790
16.74 858
16.76 815
16.78 821
16.8 892
16.82 972
16.84 986
16.86 1039
16.88 1129
16.9 1305
16.92 1399
16.94 1475
16.96 1614
16.98 1693
17 1576
17.02 1461
17.04 1181
17.06 1008
17.08 915
17.1 896
17.12 813
17.14 778
17.16 742
17.18 750
17.2 792
17.22 789
17.24 809
17.26 746
17.28 766
17.3 762
17.32 755
17.34 768
17.36 763
17.38 795
17.4 795
17.42 777
17.44 779
17.46 748
17.48 771
17.5 771
17.52 748
17.54 784
17.56 762
17.58 761
17.6 806
17.62 830
17.64 796
17.66 820
17.68 716
17.7 767
17.72 788
17.74 804
17.76 772
17.78 826
17.8 770
17.82 824
17.84 766
17.86 824
17.88 785
17.9 762
17.92 835
17.94 805
17.96 805
17.98 817
18 822
18.02 802
18.04 838
18.06 840
18.08 835
18.1 847
18.12 791
18.14 881
18.16 840
18.18 817
18.2 815
18.22 874
18.24 845
18.26 850
18.28 852
18.3 867
18.32 856
18.34 881
18.36 864
18.38 893
18.4 814
18.42 851
18.44 841
18.46 843
18.48 875
18.5 833
18.52 845
18.54 875
18.56 839
18.58 902
18.6 901
18.62 874
18.64 904
18.66 884
18.68 838
18.7 862
18.72 891
18.74 866
18.76 923
18.78 899
18.8 865
18.82 882
18.84 898
18.86 892
18.88 904
18.9 939
18.92 909
18.94 866
18.96 871
18.98 905
19 925
19.02 885
19.04 895
19.06 935
19.08 897
19.1 924
19.12 946
19.14 931
19.16 901
19.18 920
19.2 910
19.22 923
19.24 949
19.26 970
19.28 966
19.3 928
19.32 927
19.34 1023
19.36 956
19.38 940
19.4 935
19.42 985
19.44 919
19.46 972
19.48 918
19.5 916
19.52 953
19.54 979
19.56 961
19.58 1004
19.6 1043
19.62 953
19.64 1009
19.66 990
19.68 983
19.7 975
19.72 1008
19.74 935
19.76 999
19.78 929
19.8 972
19.82 982
19.84 983
19.86 1004
19.88 1017
19.9 1020
19.92 1023
19.94 964
19.96 1045
19.98 979
20 1021