File: xrd-UiO-67/pxrddata/37-6.ASC
3 3411
3.02 3253
3.04 3186
3.06 2992
3.08 2943
3.1 2785
3.12 2720
3.14 2770
3.16 2668
3.18 2608
3.2 2617
3.22 2567
3.24 2575
3.26 2606
3.28 2518
3.3 2587
3.32 2532
3.34 2498
3.36 2457
3.38 2483
3.4 2497
3.42 2371
3.44 2425
3.46 2415
3.48 2304
3.5 2381
3.52 2425
3.54 2312
3.56 2308
3.58 2387
3.6 2347
3.62 2397
3.64 2272
3.66 2317
3.68 2326
3.7 2264
3.72 2268
3.74 2344
3.76 2241
3.78 2285
3.8 2254
3.82 2223
3.84 2257
3.86 2245
3.88 2244
3.9 2214
3.92 2159
3.94 2205
3.96 2163
3.98 2109
4 2126
4.02 2124
4.04 2167
4.06 2137
4.08 2227
4.1 2074
4.12 2167
4.14 2070
4.16 2103
4.18 2081
4.2 2206
4.22 2048
4.24 2074
4.26 2133
4.28 2093
4.3 2034
4.32 2143
4.34 2050
4.36 2066
4.38 2107
4.4 1983
4.42 1981
4.44 2052
4.46 2021
4.48 2068
4.5 2040
4.52 2006
4.54 1926
4.56 1959
4.58 2029
4.6 1978
4.62 2018
4.64 1949
4.66 2048
4.68 2015
4.7 1973
4.72 1913
4.74 1963
4.76 1923
4.78 1989
4.8 1966
4.82 1923
4.84 1901
4.86 2000
4.88 1955
4.9 1858
4.92 1905
4.94 1848
4.96 1907
4.98 1943
5 1962
5.02 1913
5.04 1962
5.06 1984
5.08 1873
5.1 1866
5.12 1864
5.14 1906
5.16 1791
5.18 1780
5.2 1843
5.22 1767
5.24 1771
5.26 1687
5.28 1767
5.3 1658
5.32 1665
5.34 1650
5.36 1576
5.38 1581
5.4 1518
5.42 1537
5.44 1511
5.46 1494
5.48 1566
5.5 1506
5.52 1467
5.54 1457
5.56 1434
5.58 1407
5.6 1386
5.62 1442
5.64 1414
5.66 1368
5.68 1401
5.7 1407
5.72 1355
5.74 1323
5.76 1287
5.78 1279
5.8 1264
5.82 1269
5.84 1316
5.86 1238
5.88 1271
5.9 1210
5.92 1314
5.94 1223
5.96 1165
5.98 1216
6 1199
6.02 1132
6.04 1163
6.06 1162
6.08 1127
6.1 1118
6.12 1116
6.14 1096
6.16 1077
6.18 1056
6.2 1129
6.22 1014
6.24 1084
6.26 1055
6.28 1077
6.3 1007
6.32 1060
6.34 994
6.36 1024
6.38 957
6.4 985
6.42 941
6.44 988
6.46 943
6.48 982
6.5 955
6.52 979
6.54 976
6.56 989
6.58 980
6.6 945
6.62 932
6.64 956
6.66 926
6.68 950
6.7 928
6.72 950
6.74 899
6.76 922
6.78 931
6.8 889
6.82 898
6.84 890
6.86 919
6.88 905
6.9 891
6.92 894
6.94 844
6.96 866
6.98 876
7 898
7.02 879
7.04 903
7.06 892
7.08 838
7.1 864
7.12 862
7.14 886
7.16 842
7.18 886
7.2 877
7.22 858
7.24 866
7.26 866
7.28 816
7.3 809
7.32 836
7.34 827
7.36 808
7.38 760
7.4 811
7.42 878
7.44 789
7.46 798
7.48 787
7.5 813
7.52 791
7.54 841
7.56 829
7.58 815
7.6 827
7.62 820
7.64 781
7.66 854
7.68 801
7.7 776
7.72 794
7.74 789
7.76 806
7.78 735
7.8 793
7.82 769
7.84 800
7.86 792
7.88 754
7.9 767
7.92 735
7.94 788
7.96 742
7.98 750
8 798
8.02 784
8.04 741
8.06 779
8.08 763
8.1 753
8.12 758
8.14 779
8.16 761
8.18 697
8.2 732
8.22 776
8.24 745
8.26 740
8.28 739
8.3 773
8.32 741
8.34 758
8.36 738
8.38 699
8.4 709
8.42 731
8.44 733
8.46 725
8.48 719
8.5 719
8.52 730
8.54 714
8.56 685
8.58 738
8.6 743
8.62 734
8.64 703
8.66 719
8.68 700
8.7 746
8.72 810
8.74 699
8.76 738
8.78 689
8.8 665
8.82 690
8.84 721
8.86 713
8.88 732
8.9 691
8.92 709
8.94 709
8.96 650
8.98 678
9 724
9.02 732
9.04 694
9.06 729
9.08 674
9.1 689
9.12 748
9.14 702
9.16 695
9.18 735
9.2 700
9.22 690
9.24 678
9.26 689
9.28 739
9.3 710
9.32 711
9.34 692
9.36 728
9.38 740
9.4 682
9.42 690
9.44 722
9.46 761
9.48 733
9.5 694
9.52 689
9.54 723
9.56 700
9.58 698
9.6 711
9.62 681
9.64 710
9.66 705
9.68 716
9.7 737
9.72 736
9.74 727
9.76 753
9.78 730
9.8 762
9.82 762
9.84 689
9.86 743
9.88 701
9.9 711
9.92 677
9.94 705
9.96 694
9.98 680
10 686
10.02 703
10.04 722
10.06 660
10.08 684
10.1 730
10.12 705
10.14 679
10.16 709
10.18 687
10.2 660
10.22 683
10.24 688
10.26 648
10.28 660
10.3 624
10.32 657
10.34 613
10.36 696
10.38 641
10.4 649
10.42 614
10.44 627
10.46 661
10.48 627
10.5 642
10.52 675
10.54 671
10.56 608
10.58 653
10.6 669
10.62 626
10.64 661
10.66 631
10.68 619
10.7 632
10.72 649
10.74 613
10.76 637
10.78 663
10.8 644
10.82 602
10.84 623
10.86 670
10.88 648
10.9 617
10.92 603
10.94 652
10.96 649
10.98 636
11 643
11.02 599
11.04 650
11.06 609
11.08 632
11.1 639
11.12 606
11.14 637
11.16 669
11.18 597
11.2 627
11.22 615
11.24 679
11.26 667
11.28 618
11.3 656
11.32 604
11.34 610
11.36 645
11.38 617
11.4 617
11.42 627
11.44 610
11.46 639
11.48 604
11.5 636
11.52 613
11.54 611
11.56 624
11.58 613
11.6 606
11.62 672
11.64 623
11.66 620
11.68 615
11.7 614
11.72 661
11.74 650
11.76 577
11.78 611
11.8 640
11.82 667
11.84 626
11.86 598
11.88 637
11.9 609
11.92 625
11.94 632
11.96 646
11.98 586
12 604
12.02 609
12.04 637
12.06 647
12.08 632
12.1 606
12.12 619
12.14 592
12.16 610
12.18 639
12.2 626
12.22 606
12.24 628
12.26 627
12.28 667
12.3 601
12.32 634
12.34 625
12.36 626
12.38 600
12.4 591
12.42 612
12.44 618
12.46 620
12.48 621
12.5 646
12.52 587
12.54 604
12.56 628
12.58 598
12.6 624
12.62 626
12.64 600
12.66 644
12.68 633
12.7 646
12.72 634
12.74 573
12.76 630
12.78 638
12.8 620
12.82 611
12.84 639
12.86 641
12.88 672
12.9 619
12.92 611
12.94 614
12.96 602
12.98 623
13 649
13.02 626
13.04 641
13.06 645
13.08 610
13.1 633
13.12 588
13.14 617
13.16 629
13.18 666
13.2 661
13.22 619
13.24 655
13.26 690
13.28 624
13.3 659
13.32 664
13.34 632
13.36 572
13.38 619
13.4 608
13.42 595
13.44 679
13.46 673
13.48 633
13.5 642
13.52 627
13.54 621
13.56 622
13.58 663
13.6 573
13.62 629
13.64 636
13.66 708
13.68 625
13.7 645
13.72 635
13.74 640
13.76 635
13.78 619
13.8 666
13.82 668
13.84 632
13.86 645
13.88 652
13.9 608
13.92 648
13.94 629
13.96 651
13.98 620
14 625
14.02 674
14.04 691
14.06 691
14.08 645
14.1 659
14.12 684
14.14 643
14.16 650
14.18 652
14.2 663
14.22 658
14.24 652
14.26 673
14.28 650
14.3 666
14.32 682
14.34 654
14.36 669
14.38 699
14.4 628
14.42 654
14.44 656
14.46 632
14.48 667
14.5 697
14.52 641
14.54 698
14.56 674
14.58 702
14.6 654
14.62 637
14.64 674
14.66 697
14.68 653
14.7 692
14.72 618
14.74 677
14.76 724
14.78 706
14.8 721
14.82 711
14.84 673
14.86 719
14.88 662
14.9 673
14.92 689
14.94 702
14.96 700
14.98 691
15 679
15.02 667
15.04 686
15.06 731
15.08 668
15.1 694
15.12 684
15.14 708
15.16 709
15.18 708
15.2 679
15.22 721
15.24 718
15.26 676
15.28 691
15.3 709
15.32 739
15.34 762
15.36 786
15.38 736
15.4 739
15.42 722
15.44 757
15.46 731
15.48 721
15.5 739
15.52 745
15.54 686
15.56 662
15.58 732
15.6 673
15.62 693
15.64 660
15.66 766
15.68 674
15.7 705
15.72 770
15.74 760
15.76 696
15.78 758
15.8 766
15.82 736
15.84 739
15.86 751
15.88 716
15.9 722
15.92 750
15.94 734
15.96 820
15.98 776
16 733
16.02 716
16.04 730
16.06 788
16.08 741
16.1 684
16.12 734
16.14 766
16.16 788
16.18 769
16.2 740
16.22 734
16.24 748
16.26 782
16.28 789
16.3 801
16.32 781
16.34 789
16.36 799
16.38 813
16.4 796
16.42 866
16.44 838
16.46 830
16.48 858
16.5 800
16.52 884
16.54 836
16.56 854
16.58 871
16.6 878
16.62 944
16.64 854
16.66 874
16.68 966
16.7 943
16.72 955
16.74 1057
16.76 1038
16.78 1072
16.8 1230
16.82 1400
16.84 1450
16.86 1512
16.88 1775
16.9 2094
16.92 2452
16.94 3199
16.96 4175
16.98 6118
17 8159
17.02 7670
17.04 5577
17.06 3974
17.08 2193
17.1 1312
17.12 1149
17.14 1128
17.16 1001
17.18 1014
17.2 955
17.22 951
17.24 913
17.26 890
17.28 865
17.3 985
17.32 940
17.34 874
17.36 886
17.38 899
17.4 903
17.42 909
17.44 930
17.46 885
17.48 923
17.5 940
17.52 907
17.54 884
17.56 950
17.58 970
17.6 956
17.62 948
17.64 873
17.66 909
17.68 878
17.7 897
17.72 963
17.74 880
17.76 920
17.78 924
17.8 923
17.82 960
17.84 968
17.86 963
17.88 914
17.9 979
17.92 921
17.94 891
17.96 928
17.98 950
18 942
18.02 941
18.04 943
18.06 947
18.08 935
18.1 899
18.12 925
18.14 959
18.16 972
18.18 959
18.2 972
18.22 956
18.24 1001
18.26 1049
18.28 983
18.3 1029
18.32 969
18.34 960
18.36 955
18.38 959
18.4 981
18.42 1006
18.44 957
18.46 942
18.48 930
18.5 1007
18.52 1037
18.54 970
18.56 987
18.58 978
18.6 1009
18.62 994
18.64 981
18.66 1044
18.68 968
18.7 1005
18.72 993
18.74 1000
18.76 993
18.78 1015
18.8 1039
18.82 1015
18.84 982
18.86 1034
18.88 1020
18.9 1012
18.92 1026
18.94 1028
18.96 1013
18.98 994
19 1012
19.02 1051
19.04 1000
19.06 1026
19.08 1030
19.1 1000
19.12 1026
19.14 1040
19.16 1095
19.18 1077
19.2 1079
19.22 1130
19.24 1106
19.26 1089
19.28 1064
19.3 1096
19.32 1129
19.34 1038
19.36 1109
19.38 998
19.4 1108
19.42 1049
19.44 1077
19.46 1069
19.48 1042
19.5 1043
19.52 1118
19.54 1092
19.56 1074
19.58 1082
19.6 1108
19.62 1123
19.64 1108
19.66 1120
19.68 1102
19.7 1062
19.72 1113
19.74 1159
19.76 1039
19.78 1088
19.8 1063
19.82 1089
19.84 1157
19.86 1105
19.88 1132
19.9 1127
19.92 1153
19.94 1177
19.96 1109
19.98 1107
20 1137