File: xrd-UiO-67/pxrddata/37-7.ASC
3 2640
3.02 2348
3.04 2298
3.06 2191
3.08 2055
3.1 2028
3.12 1853
3.14 1878
3.16 1789
3.18 1833
3.2 1811
3.22 1819
3.24 1730
3.26 1802
3.28 1754
3.3 1685
3.32 1683
3.34 1668
3.36 1705
3.38 1698
3.4 1645
3.42 1684
3.44 1516
3.46 1626
3.48 1633
3.5 1607
3.52 1542
3.54 1492
3.56 1449
3.58 1500
3.6 1475
3.62 1523
3.64 1405
3.66 1417
3.68 1442
3.7 1498
3.72 1416
3.74 1450
3.76 1429
3.78 1480
3.8 1449
3.82 1386
3.84 1392
3.86 1372
3.88 1354
3.9 1419
3.92 1359
3.94 1354
3.96 1372
3.98 1323
4 1254
4.02 1279
4.04 1234
4.06 1327
4.08 1276
4.1 1269
4.12 1224
4.14 1244
4.16 1208
4.18 1272
4.2 1236
4.22 1207
4.24 1155
4.26 1220
4.28 1180
4.3 1110
4.32 1123
4.34 1119
4.36 1116
4.38 1144
4.4 1157
4.42 1151
4.44 1129
4.46 1116
4.48 1091
4.5 1138
4.52 1104
4.54 1086
4.56 1054
4.58 1089
4.6 986
4.62 1082
4.64 1003
4.66 1085
4.68 1053
4.7 1052
4.72 1046
4.74 1048
4.76 1032
4.78 1001
4.8 1036
4.82 1035
4.84 958
4.86 1011
4.88 998
4.9 962
4.92 952
4.94 965
4.96 935
4.98 894
5 947
5.02 950
5.04 980
5.06 918
5.08 926
5.1 938
5.12 940
5.14 929
5.16 875
5.18 885
5.2 914
5.22 907
5.24 875
5.26 940
5.28 917
5.3 869
5.32 943
5.34 908
5.36 888
5.38 895
5.4 856
5.42 903
5.44 870
5.46 920
5.48 857
5.5 853
5.52 871
5.54 843
5.56 760
5.58 861
5.6 845
5.62 842
5.64 850
5.66 835
5.68 875
5.7 840
5.72 819
5.74 844
5.76 852
5.78 849
5.8 806
5.82 834
5.84 827
5.86 777
5.88 775
5.9 797
5.92 804
5.94 783
5.96 798
5.98 833
6 790
6.02 772
6.04 822
6.06 785
6.08 780
6.1 697
6.12 726
6.14 706
6.16 762
6.18 755
6.2 710
6.22 794
6.24 759
6.26 762
6.28 742
6.3 766
6.32 737
6.34 763
6.36 774
6.38 725
6.4 784
6.42 725
6.44 733
6.46 734
6.48 794
6.5 747
6.52 703
6.54 796
6.56 720
6.58 747
6.6 753
6.62 717
6.64 696
6.66 755
6.68 749
6.7 730
6.72 723
6.74 723
6.76 719
6.78 671
6.8 753
6.82 751
6.84 731
6.86 725
6.88 695
6.9 720
6.92 720
6.94 687
6.96 716
6.98 682
7 768
7.02 665
7.04 717
7.06 715
7.08 717
7.1 676
7.12 728
7.14 693
7.16 704
7.18 700
7.2 726
7.22 682
7.24 671
7.26 680
7.28 702
7.3 693
7.32 677
7.34 706
7.36 705
7.38 680
7.4 671
7.42 691
7.44 715
7.46 698
7.48 678
7.5 682
7.52 660
7.54 705
7.56 694
7.58 705
7.6 696
7.62 660
7.64 710
7.66 675
7.68 698
7.7 663
7.72 686
7.74 636
7.76 702
7.78 667
7.8 651
7.82 674
7.84 677
7.86 667
7.88 671
7.9 672
7.92 639
7.94 661
7.96 647
7.98 688
8 662
8.02 613
8.04 675
8.06 700
8.08 675
8.1 684
8.12 647
8.14 648
8.16 658
8.18 623
8.2 666
8.22 659
8.24 625
8.26 666
8.28 668
8.3 669
8.32 654
8.34 653
8.36 670
8.38 675
8.4 634
8.42 672
8.44 637
8.46 656
8.48 606
8.5 647
8.52 612
8.54 611
8.56 637
8.58 650
8.6 636
8.62 640
8.64 609
8.66 653
8.68 604
8.7 648
8.72 650
8.74 620
8.76 622
8.78 616
8.8 635
8.82 646
8.84 609
8.86 639
8.88 607
8.9 644
8.92 621
8.94 625
8.96 634
8.98 653
9 590
9.02 619
9.04 643
9.06 629
9.08 625
9.1 664
9.12 633
9.14 659
9.16 649
9.18 602
9.2 599
9.22 655
9.24 626
9.26 636
9.28 635
9.3 621
9.32 606
9.34 629
9.36 631
9.38 616
9.4 634
9.42 591
9.44 626
9.46 590
9.48 665
9.5 576
9.52 625
9.54 626
9.56 605
9.58 570
9.6 585
9.62 578
9.64 577
9.66 567
9.68 604
9.7 584
9.72 618
9.74 626
9.76 608
9.78 619
9.8 563
9.82 585
9.84 590
9.86 596
9.88 636
9.9 621
9.92 572
9.94 572
9.96 583
9.98 585
10 610
10.02 618
10.04 619
10.06 642
10.08 518
10.1 591
10.12 641
10.14 598
10.16 590
10.18 549
10.2 589
10.22 578
10.24 572
10.26 592
10.28 542
10.3 568
10.32 596
10.34 584
10.36 615
10.38 569
10.4 573
10.42 599
10.44 588
10.46 598
10.48 553
10.5 606
10.52 573
10.54 614
10.56 565
10.58 561
10.6 583
10.62 628
10.64 581
10.66 596
10.68 571
10.7 582
10.72 578
10.74 562
10.76 572
10.78 556
10.8 546
10.82 615
10.84 622
10.86 583
10.88 608
10.9 584
10.92 590
10.94 560
10.96 590
10.98 603
11 570
11.02 586
11.04 571
11.06 577
11.08 552
11.1 581
11.12 566
11.14 592
11.16 536
11.18 600
11.2 593
11.22 567
11.24 578
11.26 580
11.28 599
11.3 595
11.32 565
11.34 563
11.36 569
11.38 574
11.4 585
11.42 597
11.44 584
11.46 567
11.48 592
11.5 574
11.52 534
11.54 626
11.56 571
11.58 537
11.6 536
11.62 532
11.64 573
11.66 587
11.68 574
11.7 591
11.72 593
11.74 610
11.76 595
11.78 582
11.8 550
11.82 596
11.84 568
11.86 607
11.88 593
11.9 554
11.92 588
11.94 560
11.96 565
11.98 569
12 559
12.02 572
12.04 572
12.06 599
12.08 604
12.1 579
12.12 538
12.14 538
12.16 547
12.18 632
12.2 609
12.22 621
12.24 587
12.26 593
12.28 593
12.3 559
12.32 585
12.34 619
12.36 560
12.38 547
12.4 599
12.42 594
12.44 583
12.46 601
12.48 581
12.5 617
12.52 574
12.54 625
12.56 566
12.58 569
12.6 578
12.62 604
12.64 578
12.66 588
12.68 610
12.7 596
12.72 609
12.74 572
12.76 593
12.78 552
12.8 607
12.82 586
12.84 568
12.86 599
12.88 578
12.9 587
12.92 592
12.94 609
12.96 585
12.98 574
13 654
13.02 609
13.04 580
13.06 616
13.08 640
13.1 625
13.12 590
13.14 557
13.16 566
13.18 611
13.2 616
13.22 606
13.24 634
13.26 617
13.28 656
13.3 606
13.32 610
13.34 621
13.36 564
13.38 608
13.4 610
13.42 588
13.44 591
13.46 638
13.48 611
13.5 622
13.52 617
13.54 609
13.56 644
13.58 596
13.6 627
13.62 578
13.64 636
13.66 662
13.68 609
13.7 673
13.72 643
13.74 596
13.76 630
13.78 605
13.8 654
13.82 609
13.84 607
13.86 630
13.88 637
13.9 600
13.92 630
13.94 595
13.96 591
13.98 634
14 594
14.02 636
14.04 621
14.06 618
14.08 633
14.1 631
14.12 610
14.14 616
14.16 658
14.18 601
14.2 645
14.22 640
14.24 638
14.26 644
14.28 614
14.3 651
14.32 640
14.34 633
14.36 656
14.38 670
14.4 646
14.42 662
14.44 636
14.46 620
14.48 649
14.5 662
14.52 616
14.54 676
14.56 636
14.58 625
14.6 628
14.62 644
14.64 680
14.66 635
14.68 646
14.7 656
14.72 645
14.74 657
14.76 692
14.78 643
14.8 676
14.82 665
14.84 637
14.86 732
14.88 667
14.9 676
14.92 675
14.94 653
14.96 641
14.98 691
15 678
15.02 665
15.04 714
15.06 688
15.08 705
15.1 649
15.12 679
15.14 675
15.16 723
15.18 691
15.2 702
15.22 754
15.24 692
15.26 675
15.28 675
15.3 723
15.32 717
15.34 674
15.36 748
15.38 686
15.4 716
15.42 683
15.44 760
15.46 740
15.48 711
15.5 698
15.52 716
15.54 730
15.56 741
15.58 677
15.6 689
15.62 726
15.64 677
15.66 675
15.68 748
15.7 742
15.72 764
15.74 743
15.76 692
15.78 746
15.8 752
15.82 724
15.84 760
15.86 701
15.88 759
15.9 745
15.92 779
15.94 739
15.96 728
15.98 751
16 730
16.02 734
16.04 733
16.06 745
16.08 740
16.1 732
16.12 784
16.14 757
16.16 760
16.18 744
16.2 753
16.22 740
16.24 785
16.26 769
16.28 785
16.3 798
16.32 784
16.34 730
16.36 757
16.38 753
16.4 771
16.42 770
16.44 804
16.46 775
16.48 808
16.5 836
16.52 786
16.54 756
16.56 802
16.58 798
16.6 833
16.62 863
16.64 821
16.66 827
16.68 851
16.7 842
16.72 823
16.74 870
16.76 880
16.78 957
16.8 916
16.82 1004
16.84 1016
16.86 1084
16.88 1174
16.9 1259
16.92 1392
16.94 1505
16.96 1707
16.98 1732
17 1773
17.02 1616
17.04 1403
17.06 1162
17.08 1016
17.1 1011
17.12 952
17.14 892
17.16 869
17.18 851
17.2 870
17.22 898
17.24 891
17.26 806
17.28 866
17.3 890
17.32 822
17.34 868
17.36 893
17.38 857
17.4 866
17.42 921
17.44 898
17.46 911
17.48 865
17.5 922
17.52 898
17.54 901
17.56 912
17.58 912
17.6 879
17.62 916
17.64 958
17.66 886
17.68 866
17.7 950
17.72 910
17.74 895
17.76 886
17.78 903
17.8 916
17.82 954
17.84 913
17.86 906
17.88 875
17.9 900
17.92 926
17.94 942
17.96 901
17.98 888
18 903
18.02 902
18.04 941
18.06 943
18.08 938
18.1 941
18.12 900
18.14 978
18.16 938
18.18 939
18.2 936
18.22 902
18.24 962
18.26 958
18.28 962
18.3 956
18.32 1019
18.34 952
18.36 951
18.38 968
18.4 1014
18.42 989
18.44 1030
18.46 933
18.48 990
18.5 1038
18.52 974
18.54 982
18.56 1027
18.58 1004
18.6 984
18.62 972
18.64 1014
18.66 1022
18.68 996
18.7 1035
18.72 1074
18.74 1059
18.76 1007
18.78 977
18.8 996
18.82 1051
18.84 1023
18.86 1086
18.88 1060
18.9 1018
18.92 1041
18.94 1046
18.96 1083
18.98 1121
19 1071
19.02 1100
19.04 1048
19.06 1042
19.08 1054
19.1 1053
19.12 1034
19.14 1087
19.16 1054
19.18 1087
19.2 1084
19.22 1042
19.24 1116
19.26 1081
19.28 1112
19.3 1116
19.32 1107
19.34 1126
19.36 1114
19.38 1054
19.4 1064
19.42 1135
19.44 1078
19.46 1129
19.48 1099
19.5 1119
19.52 1116
19.54 1138
19.56 1140
19.58 1126
19.6 1192
19.62 1144
19.64 1107
19.66 1165
19.68 1134
19.7 1189
19.72 1204
19.74 1185
19.76 1163
19.78 1142
19.8 1196
19.82 1149
19.84 1173
19.86 1157
19.88 1177
19.9 1094
19.92 1210
19.94 1189
19.96 1147
19.98 1194
20 1188