File: xrd-UiO-67/pxrddata/37-8.ASC
3 3160
3.02 2994
3.04 2727
3.06 2594
3.08 2579
3.1 2496
3.12 2370
3.14 2268
3.16 2295
3.18 2268
3.2 2241
3.22 2213
3.24 2208
3.26 2123
3.28 2073
3.3 2113
3.32 2058
3.34 1988
3.36 2028
3.38 1974
3.4 1931
3.42 1927
3.44 1922
3.46 1910
3.48 1874
3.5 1909
3.52 1869
3.54 1811
3.56 1797
3.58 1786
3.6 1741
3.62 1733
3.64 1730
3.66 1734
3.68 1680
3.7 1646
3.72 1666
3.74 1697
3.76 1635
3.78 1649
3.8 1634
3.82 1636
3.84 1634
3.86 1539
3.88 1577
3.9 1603
3.92 1667
3.94 1533
3.96 1561
3.98 1516
4 1582
4.02 1524
4.04 1621
4.06 1545
4.08 1475
4.1 1466
4.12 1506
4.14 1496
4.16 1435
4.18 1495
4.2 1397
4.22 1433
4.24 1463
4.26 1481
4.28 1388
4.3 1402
4.32 1362
4.34 1340
4.36 1382
4.38 1318
4.4 1382
4.42 1331
4.44 1369
4.46 1344
4.48 1313
4.5 1296
4.52 1321
4.54 1389
4.56 1303
4.58 1291
4.6 1325
4.62 1312
4.64 1343
4.66 1290
4.68 1307
4.7 1238
4.72 1184
4.74 1221
4.76 1301
4.78 1241
4.8 1277
4.82 1258
4.84 1258
4.86 1282
4.88 1289
4.9 1280
4.92 1250
4.94 1264
4.96 1275
4.98 1261
5 1281
5.02 1261
5.04 1283
5.06 1324
5.08 1290
5.1 1296
5.12 1274
5.14 1313
5.16 1404
5.18 1340
5.2 1429
5.22 1395
5.24 1386
5.26 1426
5.28 1500
5.3 1548
5.32 1654
5.34 1803
5.36 1862
5.38 2065
5.4 2108
5.42 1907
5.44 1628
5.46 1460
5.48 1498
5.5 1439
5.52 1407
5.54 1438
5.56 1382
5.58 1357
5.6 1396
5.62 1334
5.64 1436
5.66 1415
5.68 1472
5.7 1465
5.72 1544
5.74 1507
5.76 1394
5.78 1311
5.8 1194
5.82 1109
5.84 1068
5.86 973
5.88 989
5.9 952
5.92 953
5.94 948
5.96 925
5.98 976
6 902
6.02 860
6.04 856
6.06 856
6.08 892
6.1 872
6.12 857
6.14 842
6.16 866
6.18 813
6.2 843
6.22 840
6.24 783
6.26 827
6.28 861
6.3 765
6.32 774
6.34 799
6.36 782
6.38 810
6.4 760
6.42 754
6.44 766
6.46 749
6.48 781
6.5 773
6.52 722
6.54 795
6.56 784
6.58 737
6.6 748
6.62 790
6.64 825
6.66 754
6.68 810
6.7 764
6.72 775
6.74 754
6.76 818
6.78 720
6.8 741
6.82 749
6.84 739
6.86 703
6.88 734
6.9 710
6.92 763
6.94 742
6.96 748
6.98 699
7 646
7.02 712
7.04 679
7.06 724
7.08 726
7.1 667
7.12 696
7.14 684
7.16 688
7.18 644
7.2 710
7.22 671
7.24 695
7.26 632
7.28 686
7.3 648
7.32 676
7.34 708
7.36 651
7.38 687
7.4 689
7.42 664
7.44 675
7.46 673
7.48 639
7.5 687
7.52 678
7.54 651
7.56 608
7.58 646
7.6 632
7.62 661
7.64 651
7.66 660
7.68 662
7.7 607
7.72 659
7.74 659
7.76 634
7.78 666
7.8 678
7.82 679
7.84 654
7.86 662
7.88 660
7.9 609
7.92 654
7.94 638
7.96 585
7.98 664
8 652
8.02 657
8.04 644
8.06 662
8.08 616
8.1 647
8.12 626
8.14 645
8.16 627
8.18 658
8.2 631
8.22 652
8.24 645
8.26 626
8.28 648
8.3 623
8.32 645
8.34 605
8.36 631
8.38 605
8.4 635
8.42 611
8.44 629
8.46 609
8.48 606
8.5 610
8.52 639
8.54 583
8.56 620
8.58 605
8.6 590
8.62 592
8.64 641
8.66 607
8.68 616
8.7 659
8.72 567
8.74 637
8.76 629
8.78 600
8.8 617
8.82 610
8.84 600
8.86 602
8.88 621
8.9 622
8.92 638
8.94 628
8.96 611
8.98 676
9 663
9.02 613
9.04 631
9.06 675
9.08 692
9.1 663
9.12 686
9.14 670
9.16 689
9.18 783
9.2 749
9.22 752
9.24 767
9.26 885
9.28 980
9.3 1220
9.32 1086
9.34 944
9.36 753
9.38 655
9.4 623
9.42 688
9.44 664
9.46 607
9.48 577
9.5 611
9.52 595
9.54 646
9.56 642
9.58 634
9.6 602
9.62 581
9.64 582
9.66 565
9.68 598
9.7 586
9.72 602
9.74 652
9.76 620
9.78 640
9.8 616
9.82 576
9.84 613
9.86 582
9.88 618
9.9 591
9.92 579
9.94 634
9.96 579
9.98 589
10 634
10.02 647
10.04 609
10.06 621
10.08 654
10.1 590
10.12 578
10.14 591
10.16 559
10.18 650
10.2 657
10.22 596
10.24 575
10.26 545
10.28 540
10.3 589
10.32 566
10.34 590
10.36 618
10.38 582
10.4 579
10.42 551
10.44 590
10.46 581
10.48 542
10.5 569
10.52 580
10.54 592
10.56 587
10.58 586
10.6 568
10.62 610
10.64 610
10.66 624
10.68 664
10.7 665
10.72 730
10.74 799
10.76 756
10.78 766
10.8 708
10.82 654
10.84 629
10.86 652
10.88 645
10.9 675
10.92 668
10.94 696
10.96 652
10.98 632
11 587
11.02 563
11.04 586
11.06 573
11.08 628
11.1 573
11.12 525
11.14 577
11.16 560
11.18 558
11.2 528
11.22 587
11.24 581
11.26 577
11.28 552
11.3 539
11.32 574
11.34 571
11.36 539
11.38 558
11.4 582
11.42 585
11.44 630
11.46 565
11.48 581
11.5 598
11.52 573
11.54 588
11.56 559
11.58 582
11.6 571
11.62 573
11.64 560
11.66 564
11.68 581
11.7 556
11.72 507
11.74 531
11.76 545
11.78 518
11.8 577
11.82 602
11.84 530
11.86 579
11.88 515
11.9 553
11.92 500
11.94 552
11.96 570
11.98 591
12 553
12.02 562
12.04 539
12.06 545
12.08 560
12.1 554
12.12 614
12.14 544
12.16 561
12.18 582
12.2 601
12.22 587
12.24 593
12.26 569
12.28 557
12.3 581
12.32 608
12.34 581
12.36 573
12.38 556
12.4 541
12.42 572
12.44 542
12.46 547
12.48 545
12.5 560
12.52 529
12.54 581
12.56 526
12.58 562
12.6 538
12.62 558
12.64 499
12.66 536
12.68 518
12.7 527
12.72 592
12.74 573
12.76 553
12.78 543
12.8 548
12.82 552
12.84 576
12.86 534
12.88 568
12.9 589
12.92 565
12.94 578
12.96 595
12.98 561
13 573
13.02 533
13.04 534
13.06 555
13.08 540
13.1 526
13.12 559
13.14 617
13.16 545
13.18 581
13.2 577
13.22 572
13.24 582
13.26 578
13.28 596
13.3 583
13.32 591
13.34 606
13.36 592
13.38 614
13.4 548
13.42 584
13.44 539
13.46 558
13.48 625
13.5 605
13.52 563
13.54 565
13.56 543
13.58 539
13.6 561
13.62 581
13.64 532
13.66 521
13.68 562
13.7 530
13.72 577
13.74 556
13.76 556
13.78 565
13.8 568
13.82 545
13.84 584
13.86 570
13.88 627
13.9 579
13.92 557
13.94 570
13.96 591
13.98 604
14 565
14.02 575
14.04 595
14.06 589
14.08 566
14.1 597
14.12 614
14.14 574
14.16 620
14.18 611
14.2 589
14.22 605
14.24 592
14.26 575
14.28 614
14.3 600
14.32 561
14.34 592
14.36 629
14.38 602
14.4 603
14.42 554
14.44 565
14.46 601
14.48 619
14.5 600
14.52 593
14.54 606
14.56 560
14.58 597
14.6 610
14.62 560
14.64 571
14.66 620
14.68 623
14.7 613
14.72 639
14.74 584
14.76 632
14.78 612
14.8 624
14.82 618
14.84 617
14.86 619
14.88 583
14.9 615
14.92 635
14.94 604
14.96 588
14.98 587
15 603
15.02 601
15.04 602
15.06 595
15.08 618
15.1 594
15.12 613
15.14 609
15.16 597
15.18 630
15.2 643
15.22 620
15.24 655
15.26 656
15.28 632
15.3 666
15.32 655
15.34 622
15.36 617
15.38 644
15.4 620
15.42 648
15.44 623
15.46 588
15.48 657
15.5 570
15.52 604
15.54 623
15.56 615
15.58 634
15.6 682
15.62 638
15.64 615
15.66 615
15.68 602
15.7 665
15.72 680
15.74 663
15.76 615
15.78 619
15.8 651
15.82 620
15.84 659
15.86 622
15.88 632
15.9 698
15.92 611
15.94 600
15.96 673
15.98 687
16 691
16.02 624
16.04 673
16.06 639
16.08 672
16.1 705
16.12 660
16.14 671
16.16 708
16.18 692
16.2 689
16.22 675
16.24 709
16.26 719
16.28 678
16.3 666
16.32 674
16.34 698
16.36 674
16.38 725
16.4 693
16.42 674
16.44 664
16.46 677
16.48 648
16.5 710
16.52 768
16.54 745
16.56 735
16.58 754
16.6 752
16.62 701
16.64 790
16.66 762
16.68 827
16.7 828
16.72 789
16.74 784
16.76 802
16.78 811
16.8 827
16.82 807
16.84 828
16.86 826
16.88 833
16.9 941
16.92 973
16.94 1089
16.96 1135
16.98 1073
17 925
17.02 837
17.04 719
17.06 744
17.08 749
17.1 709
17.12 733
17.14 770
17.16 751
17.18 778
17.2 750
17.22 795
17.24 768
17.26 730
17.28 770
17.3 786
17.32 742
17.34 781
17.36 827
17.38 752
17.4 785
17.42 770
17.44 770
17.46 799
17.48 752
17.5 747
17.52 817
17.54 815
17.56 807
17.58 863
17.6 796
17.62 778
17.64 763
17.66 766
17.68 844
17.7 787
17.72 847
17.74 826
17.76 802
17.78 828
17.8 776
17.82 783
17.84 838
17.86 786
17.88 818
17.9 862
17.92 812
17.94 794
17.96 799
17.98 816
18 799
18.02 819
18.04 768
18.06 818
18.08 786
18.1 836
18.12 807
18.14 870
18.16 830
18.18 874
18.2 823
18.22 832
18.24 874
18.26 865
18.28 849
18.3 831
18.32 846
18.34 835
18.36 835
18.38 794
18.4 816
18.42 817
18.44 850
18.46 858
18.48 879
18.5 932
18.52 935
18.54 892
18.56 927
18.58 930
18.6 895
18.62 887
18.64 920
18.66 927
18.68 904
18.7 920
18.72 867
18.74 907
18.76 866
18.78 946
18.8 851
18.82 909
18.84 946
18.86 873
18.88 864
18.9 907
18.92 968
18.94 923
18.96 946
18.98 939
19 955
19.02 985
19.04 951
19.06 880
19.08 969
19.1 967
19.12 943
19.14 959
19.16 996
19.18 870
19.2 930
19.22 903
19.24 932
19.26 921
19.28 942
19.3 962
19.32 968
19.34 969
19.36 945
19.38 1056
19.4 1055
19.42 1083
19.44 1048
19.46 1029
19.48 1003
19.5 1008
19.52 1010
19.54 1001
19.56 939
19.58 964
19.6 967
19.62 983
19.64 1026
19.66 973
19.68 992
19.7 965
19.72 994
19.74 1026
19.76 1003
19.78 970
19.8 1004
19.82 1019
19.84 994
19.86 1012
19.88 1012
19.9 963
19.92 987
19.94 1013
19.96 996
19.98 959
20 1021