File: xrd-UiO-67/pxrddata/37-9.ASC
3 2432
3.02 2330
3.04 2142
3.06 2008
3.08 2015
3.1 1880
3.12 1776
3.14 1802
3.16 1730
3.18 1741
3.2 1704
3.22 1703
3.24 1663
3.26 1576
3.28 1612
3.3 1613
3.32 1567
3.34 1575
3.36 1505
3.38 1599
3.4 1503
3.42 1518
3.44 1443
3.46 1478
3.48 1386
3.5 1435
3.52 1391
3.54 1399
3.56 1333
3.58 1343
3.6 1436
3.62 1343
3.64 1273
3.66 1299
3.68 1311
3.7 1291
3.72 1236
3.74 1301
3.76 1211
3.78 1193
3.8 1209
3.82 1108
3.84 1140
3.86 1216
3.88 1091
3.9 1188
3.92 1125
3.94 1180
3.96 1181
3.98 1098
4 1067
4.02 1157
4.04 1126
4.06 1077
4.08 1029
4.1 998
4.12 1096
4.14 1006
4.16 1015
4.18 1038
4.2 1069
4.22 1068
4.24 998
4.26 1047
4.28 1009
4.3 1027
4.32 974
4.34 989
4.36 959
4.38 923
4.4 958
4.42 969
4.44 951
4.46 941
4.48 910
4.5 916
4.52 904
4.54 940
4.56 914
4.58 865
4.6 906
4.62 880
4.64 911
4.66 862
4.68 822
4.7 909
4.72 807
4.74 818
4.76 919
4.78 802
4.8 812
4.82 841
4.84 861
4.86 828
4.88 851
4.9 827
4.92 794
4.94 738
4.96 765
4.98 816
5 798
5.02 780
5.04 810
5.06 838
5.08 779
5.1 747
5.12 785
5.14 773
5.16 780
5.18 782
5.2 777
5.22 741
5.24 766
5.26 753
5.28 731
5.3 707
5.32 736
5.34 725
5.36 734
5.38 764
5.4 693
5.42 700
5.44 757
5.46 724
5.48 734
5.5 715
5.52 736
5.54 729
5.56 710
5.58 695
5.6 691
5.62 674
5.64 676
5.66 750
5.68 701
5.7 680
5.72 691
5.74 654
5.76 659
5.78 674
5.8 651
5.82 665
5.84 648
5.86 708
5.88 679
5.9 657
5.92 726
5.94 668
5.96 673
5.98 708
6 670
6.02 664
6.04 655
6.06 630
6.08 592
6.1 623
6.12 679
6.14 655
6.16 654
6.18 672
6.2 656
6.22 695
6.24 625
6.26 622
6.28 613
6.3 628
6.32 659
6.34 679
6.36 671
6.38 650
6.4 631
6.42 616
6.44 634
6.46 689
6.48 652
6.5 623
6.52 629
6.54 692
6.56 624
6.58 638
6.6 620
6.62 596
6.64 596
6.66 610
6.68 675
6.7 623
6.72 584
6.74 683
6.76 630
6.78 651
6.8 556
6.82 600
6.84 605
6.86 598
6.88 606
6.9 578
6.92 644
6.94 593
6.96 591
6.98 627
7 568
7.02 561
7.04 628
7.06 607
7.08 588
7.1 576
7.12 610
7.14 555
7.16 573
7.18 600
7.2 561
7.22 587
7.24 603
7.26 638
7.28 575
7.3 551
7.32 599
7.34 579
7.36 598
7.38 577
7.4 570
7.42 617
7.44 563
7.46 571
7.48 594
7.5 575
7.52 577
7.54 597
7.56 584
7.58 543
7.6 586
7.62 549
7.64 579
7.66 562
7.68 557
7.7 556
7.72 523
7.74 591
7.76 618
7.78 576
7.8 601
7.82 573
7.84 548
7.86 572
7.88 577
7.9 537
7.92 570
7.94 563
7.96 556
7.98 572
8 585
8.02 608
8.04 583
8.06 558
8.08 532
8.1 583
8.12 528
8.14 563
8.16 534
8.18 539
8.2 560
8.22 537
8.24 537
8.26 533
8.28 546
8.3 545
8.32 552
8.34 539
8.36 539
8.38 586
8.4 531
8.42 559
8.44 558
8.46 567
8.48 552
8.5 537
8.52 575
8.54 538
8.56 556
8.58 579
8.6 549
8.62 557
8.64 578
8.66 529
8.68 548
8.7 596
8.72 554
8.74 582
8.76 632
8.78 616
8.8 644
8.82 611
8.84 657
8.86 656
8.88 679
8.9 701
8.92 667
8.94 795
8.96 815
8.98 1020
9 1260
9.02 1681
9.04 1697
9.06 1280
9.08 746
9.1 610
9.12 586
9.14 602
9.16 515
9.18 581
9.2 525
9.22 571
9.24 509
9.26 495
9.28 521
9.3 526
9.32 526
9.34 534
9.36 525
9.38 526
9.4 533
9.42 542
9.44 536
9.46 526
9.48 493
9.5 517
9.52 513
9.54 524
9.56 534
9.58 525
9.6 549
9.62 531
9.64 514
9.66 550
9.68 514
9.7 531
9.72 540
9.74 548
9.76 521
9.78 511
9.8 504
9.82 554
9.84 496
9.86 531
9.88 582
9.9 519
9.92 517
9.94 540
9.96 591
9.98 551
10 548
10.02 498
10.04 512
10.06 490
10.08 483
10.1 478
10.12 515
10.14 506
10.16 498
10.18 494
10.2 483
10.22 477
10.24 478
10.26 488
10.28 470
10.3 490
10.32 468
10.34 481
10.36 474
10.38 462
10.4 517
10.42 477
10.44 519
10.46 479
10.48 487
10.5 472
10.52 521
10.54 451
10.56 477
10.58 446
10.6 458
10.62 495
10.64 494
10.66 466
10.68 487
10.7 488
10.72 488
10.74 480
10.76 521
10.78 480
10.8 484
10.82 505
10.84 506
10.86 462
10.88 483
10.9 478
10.92 463
10.94 505
10.96 487
10.98 497
11 493
11.02 461
11.04 448
11.06 490
11.08 485
11.1 486
11.12 430
11.14 439
11.16 453
11.18 473
11.2 454
11.22 478
11.24 435
11.26 466
11.28 449
11.3 445
11.32 462
11.34 469
11.36 458
11.38 469
11.4 459
11.42 459
11.44 441
11.46 466
11.48 474
11.5 483
11.52 428
11.54 470
11.56 466
11.58 444
11.6 461
11.62 456
11.64 517
11.66 473
11.68 450
11.7 491
11.72 472
11.74 495
11.76 447
11.78 467
11.8 489
11.82 472
11.84 457
11.86 467
11.88 458
11.9 452
11.92 454
11.94 487
11.96 443
11.98 459
12 470
12.02 491
12.04 471
12.06 451
12.08 453
12.1 479
12.12 454
12.14 495
12.16 449
12.18 471
12.2 458
12.22 493
12.24 474
12.26 491
12.28 484
12.3 500
12.32 468
12.34 462
12.36 524
12.38 448
12.4 398
12.42 461
12.44 454
12.46 505
12.48 458
12.5 474
12.52 502
12.54 448
12.56 499
12.58 486
12.6 473
12.62 469
12.64 466
12.66 446
12.68 528
12.7 517
12.72 503
12.74 496
12.76 503
12.78 509
12.8 476
12.82 463
12.84 471
12.86 482
12.88 486
12.9 489
12.92 472
12.94 439
12.96 476
12.98 461
13 473
13.02 435
13.04 490
13.06 452
13.08 508
13.1 490
13.12 470
13.14 490
13.16 495
13.18 517
13.2 479
13.22 513
13.24 483
13.26 540
13.28 511
13.3 517
13.32 462
13.34 527
13.36 533
13.38 505
13.4 530
13.42 502
13.44 479
13.46 498
13.48 498
13.5 477
13.52 440
13.54 497
13.56 490
13.58 471
13.6 483
13.62 464
13.64 452
13.66 496
13.68 511
13.7 465
13.72 517
13.74 515
13.76 463
13.78 481
13.8 516
13.82 480
13.84 468
13.86 433
13.88 483
13.9 484
13.92 483
13.94 486
13.96 502
13.98 544
14 486
14.02 488
14.04 500
14.06 488
14.08 505
14.1 467
14.12 482
14.14 479
14.16 485
14.18 502
14.2 487
14.22 435
14.24 508
14.26 526
14.28 500
14.3 463
14.32 486
14.34 494
14.36 481
14.38 496
14.4 466
14.42 492
14.44 457
14.46 499
14.48 473
14.5 484
14.52 507
14.54 515
14.56 490
14.58 499
14.6 502
14.62 528
14.64 506
14.66 496
14.68 510
14.7 484
14.72 498
14.74 521
14.76 514
14.78 499
14.8 537
14.82 519
14.84 514
14.86 476
14.88 493
14.9 528
14.92 539
14.94 512
14.96 487
14.98 525
15 483
15.02 513
15.04 518
15.06 462
15.08 482
15.1 535
15.12 515
15.14 560
15.16 529
15.18 509
15.2 505
15.22 488
15.24 534
15.26 579
15.28 543
15.3 569
15.32 526
15.34 558
15.36 548
15.38 526
15.4 529
15.42 570
15.44 522
15.46 540
15.48 538
15.5 520
15.52 571
15.54 557
15.56 522
15.58 544
15.6 569
15.62 489
15.64 574
15.66 571
15.68 515
15.7 538
15.72 550
15.74 565
15.76 515
15.78 586
15.8 506
15.82 556
15.84 559
15.86 518
15.88 539
15.9 535
15.92 573
15.94 526
15.96 555
15.98 584
16 558
16.02 600
16.04 580
16.06 531
16.08 583
16.1 551
16.12 550
16.14 563
16.16 581
16.18 567
16.2 556
16.22 593
16.24 539
16.26 593
16.28 598
16.3 563
16.32 611
16.34 580
16.36 555
16.38 602
16.4 580
16.42 616
16.44 557
16.46 571
16.48 628
16.5 613
16.52 571
16.54 582
16.56 626
16.58 654
16.6 620
16.62 665
16.64 660
16.66 664
16.68 646
16.7 655
16.72 728
16.74 746
16.76 813
16.78 845
16.8 868
16.82 984
16.84 1074
16.86 1267
16.88 1334
16.9 1511
16.92 1617
16.94 1672
16.96 1515
16.98 1306
17 1291
17.02 1132
17.04 993
17.06 866
17.08 754
17.1 687
17.12 676
17.14 697
17.16 651
17.18 653
17.2 704
17.22 627
17.24 644
17.26 608
17.28 639
17.3 657
17.32 660
17.34 691
17.36 653
17.38 666
17.4 640
17.42 619
17.44 674
17.46 703
17.48 631
17.5 660
17.52 687
17.54 632
17.56 678
17.58 602
17.6 684
17.62 642
17.64 651
17.66 662
17.68 664
17.7 692
17.72 681
17.74 667
17.76 652
17.78 691
17.8 696
17.82 701
17.84 669
17.86 658
17.88 672
17.9 652
17.92 673
17.94 678
17.96 721
17.98 673
18 711
18.02 751
18.04 718
18.06 712
18.08 709
18.1 677
18.12 681
18.14 692
18.16 657
18.18 700
18.2 674
18.22 644
18.24 673
18.26 672
18.28 681
18.3 703
18.32 663
18.34 726
18.36 707
18.38 729
18.4 697
18.42 719
18.44 685
18.46 728
18.48 731
18.5 728
18.52 726
18.54 751
18.56 731
18.58 750
18.6 730
18.62 723
18.64 743
18.66 771
18.68 723
18.7 709
18.72 699
18.74 690
18.76 726
18.78 713
18.8 699
18.82 761
18.84 746
18.86 768
18.88 749
18.9 725
18.92 728
18.94 756
18.96 729
18.98 787
19 751
19.02 744
19.04 737
19.06 761
19.08 727
19.1 724
19.12 768
19.14 778
19.16 781
19.18 773
19.2 691
19.22 736
19.24 764
19.26 737
19.28 709
19.3 784
19.32 727
19.34 811
19.36 801
19.38 758
19.4 810
19.42 828
19.44 781
19.46 797
19.48 743
19.5 769
19.52 776
19.54 789
19.56 819
19.58 827
19.6 792
19.62 790
19.64 762
19.66 795
19.68 788
19.7 807
19.72 813
19.74 797
19.76 829
19.78 783
19.8 833
19.82 837
19.84 781
19.86 784
19.88 815
19.9 861
19.92 859
19.94 872
19.96 825
19.98 835
20 827