File: xrd-UiO-67/pxrddata/38-1.ASC
3 3231
3.02 3052
3.04 2764
3.06 2774
3.08 2687
3.1 2568
3.12 2461
3.14 2348
3.16 2354
3.18 2310
3.2 2274
3.22 2222
3.24 2162
3.26 2265
3.28 2181
3.3 2143
3.32 2048
3.34 1963
3.36 1944
3.38 1930
3.4 1879
3.42 1879
3.44 1968
3.46 1891
3.48 1859
3.5 1811
3.52 1899
3.54 1811
3.56 1844
3.58 1836
3.6 1762
3.62 1672
3.64 1726
3.66 1731
3.68 1681
3.7 1621
3.72 1631
3.74 1556
3.76 1579
3.78 1546
3.8 1523
3.82 1574
3.84 1446
3.86 1451
3.88 1464
3.9 1423
3.92 1421
3.94 1407
3.96 1410
3.98 1409
4 1421
4.02 1358
4.04 1393
4.06 1342
4.08 1387
4.1 1374
4.12 1342
4.14 1352
4.16 1353
4.18 1297
4.2 1292
4.22 1230
4.24 1239
4.26 1251
4.28 1229
4.3 1208
4.32 1270
4.34 1180
4.36 1232
4.38 1207
4.4 1185
4.42 1224
4.44 1204
4.46 1203
4.48 1204
4.5 1166
4.52 1187
4.54 1202
4.56 1208
4.58 1211
4.6 1195
4.62 1219
4.64 1162
4.66 1206
4.68 1280
4.7 1237
4.72 1173
4.74 1230
4.76 1261
4.78 1265
4.8 1280
4.82 1315
4.84 1343
4.86 1302
4.88 1314
4.9 1369
4.92 1408
4.94 1395
4.96 1390
4.98 1401
5 1455
5.02 1545
5.04 1525
5.06 1631
5.08 1658
5.1 1806
5.12 1774
5.14 1871
5.16 2000
5.18 2087
5.2 2374
5.22 2423
5.24 2478
5.26 2638
5.28 2958
5.3 3190
5.32 3485
5.34 3839
5.36 4143
5.38 4766
5.4 5641
5.42 6535
5.44 6924
5.46 6255
5.48 4953
5.5 3709
5.52 3055
5.54 2594
5.56 2377
5.58 2207
5.6 2023
5.62 1805
5.64 1701
5.66 1656
5.68 1575
5.7 1505
5.72 1436
5.74 1374
5.76 1393
5.78 1322
5.8 1241
5.82 1284
5.84 1159
5.86 1131
5.88 1082
5.9 1090
5.92 1028
5.94 1061
5.96 991
5.98 1037
6 941
6.02 967
6.04 1007
6.06 873
6.08 860
6.1 943
6.12 954
6.14 892
6.16 876
6.18 848
6.2 870
6.22 830
6.24 827
6.26 861
6.28 858
6.3 793
6.32 822
6.34 814
6.36 792
6.38 829
6.4 770
6.42 761
6.44 751
6.46 754
6.48 775
6.5 802
6.52 807
6.54 782
6.56 780
6.58 804
6.6 756
6.62 772
6.64 769
6.66 807
6.68 756
6.7 743
6.72 752
6.74 796
6.76 721
6.78 803
6.8 737
6.82 740
6.84 724
6.86 732
6.88 710
6.9 697
6.92 730
6.94 718
6.96 712
6.98 740
7 696
7.02 688
7.04 737
7.06 732
7.08 706
7.1 764
7.12 680
7.14 649
7.16 712
7.18 674
7.2 687
7.22 691
7.24 678
7.26 650
7.28 712
7.3 700
7.32 640
7.34 652
7.36 693
7.38 678
7.4 741
7.42 727
7.44 696
7.46 635
7.48 700
7.5 635
7.52 656
7.54 610
7.56 681
7.58 676
7.6 713
7.62 706
7.64 728
7.66 646
7.68 671
7.7 649
7.72 711
7.74 657
7.76 672
7.78 684
7.8 641
7.82 674
7.84 662
7.86 689
7.88 648
7.9 700
7.92 692
7.94 648
7.96 682
7.98 694
8 664
8.02 684
8.04 695
8.06 657
8.08 676
8.1 683
8.12 655
8.14 677
8.16 653
8.18 655
8.2 681
8.22 657
8.24 639
8.26 694
8.28 644
8.3 671
8.32 659
8.34 625
8.36 663
8.38 661
8.4 651
8.42 671
8.44 723
8.46 668
8.48 650
8.5 646
8.52 612
8.54 660
8.56 677
8.58 654
8.6 685
8.62 654
8.64 651
8.66 657
8.68 682
8.7 671
8.72 678
8.74 658
8.76 676
8.78 644
8.8 636
8.82 676
8.84 668
8.86 680
8.88 777
8.9 700
8.92 795
8.94 739
8.96 728
8.98 745
9 757
9.02 800
9.04 807
9.06 822
9.08 839
9.1 870
9.12 905
9.14 945
9.16 1008
9.18 1019
9.2 1121
9.22 1175
9.24 1315
9.26 1352
9.28 1613
9.3 1782
9.32 2089
9.34 2341
9.36 2410
9.38 2118
9.4 1650
9.42 1379
9.44 1113
9.46 964
9.48 929
9.5 832
9.52 801
9.54 820
9.56 766
9.58 777
9.6 757
9.62 722
9.64 709
9.66 697
9.68 714
9.7 739
9.72 741
9.74 694
9.76 726
9.78 697
9.8 713
9.82 697
9.84 714
9.86 735
9.88 705
9.9 698
9.92 693
9.94 683
9.96 683
9.98 747
10 684
10.02 729
10.04 711
10.06 727
10.08 704
10.1 720
10.12 666
10.14 695
10.16 694
10.18 660
10.2 691
10.22 656
10.24 681
10.26 711
10.28 712
10.3 703
10.32 673
10.34 735
10.36 695
10.38 739
10.4 747
10.42 697
10.44 713
10.46 734
10.48 752
10.5 742
10.52 759
10.54 861
10.56 816
10.58 850
10.6 842
10.62 850
10.64 925
10.66 942
10.68 1033
10.7 1137
10.72 1130
10.74 1335
10.76 1470
10.78 1543
10.8 1669
10.82 1538
10.84 1377
10.86 1231
10.88 1127
10.9 1110
10.92 982
10.94 930
10.96 856
10.98 864
11 839
11.02 852
11.04 812
11.06 793
11.08 747
11.1 766
11.12 738
11.14 708
11.16 772
11.18 681
11.2 663
11.22 710
11.24 756
11.26 655
11.28 679
11.3 715
11.32 684
11.34 690
11.36 667
11.38 659
11.4 679
11.42 656
11.44 704
11.46 716
11.48 681
11.5 665
11.52 674
11.54 650
11.56 702
11.58 696
11.6 677
11.62 677
11.64 674
11.66 658
11.68 707
11.7 689
11.72 630
11.74 645
11.76 647
11.78 653
11.8 657
11.82 698
11.84 713
11.86 650
11.88 686
11.9 677
11.92 680
11.94 701
11.96 686
11.98 669
12 662
12.02 731
12.04 657
12.06 707
12.08 683
12.1 702
12.12 756
12.14 693
12.16 729
12.18 731
12.2 734
12.22 771
12.24 821
12.26 815
12.28 892
12.3 770
12.32 826
12.34 785
12.36 805
12.38 745
12.4 731
12.42 734
12.44 685
12.46 660
12.48 722
12.5 692
12.52 643
12.54 779
12.56 719
12.58 680
12.6 673
12.62 690
12.64 711
12.66 701
12.68 699
12.7 711
12.72 710
12.74 704
12.76 683
12.78 698
12.8 666
12.82 720
12.84 718
12.86 725
12.88 736
12.9 722
12.92 736
12.94 704
12.96 799
12.98 715
13 744
13.02 744
13.04 735
13.06 720
13.08 741
13.1 722
13.12 721
13.14 708
13.16 743
13.18 715
13.2 769
13.22 707
13.24 726
13.26 752
13.28 757
13.3 801
13.32 707
13.34 734
13.36 708
13.38 692
13.4 759
13.42 744
13.44 757
13.46 738
13.48 732
13.5 766
13.52 733
13.54 756
13.56 808
13.58 758
13.6 751
13.62 755
13.64 813
13.66 769
13.68 752
13.7 746
13.72 748
13.74 741
13.76 767
13.78 747
13.8 765
13.82 767
13.84 785
13.86 735
13.88 751
13.9 720
13.92 785
13.94 781
13.96 801
13.98 771
14 786
14.02 811
14.04 745
14.06 764
14.08 786
14.1 788
14.12 784
14.14 812
14.16 812
14.18 807
14.2 808
14.22 834
14.24 841
14.26 830
14.28 849
14.3 854
14.32 858
14.34 862
14.36 847
14.38 825
14.4 833
14.42 833
14.44 794
14.46 815
14.48 774
14.5 760
14.52 820
14.54 809
14.56 790
14.58 820
14.6 816
14.62 800
14.64 836
14.66 853
14.68 791
14.7 810
14.72 830
14.74 810
14.76 816
14.78 836
14.8 808
14.82 751
14.84 774
14.86 812
14.88 822
14.9 801
14.92 795
14.94 880
14.96 832
14.98 860
15 816
15.02 796
15.04 779
15.06 845
15.08 825
15.1 839
15.12 856
15.14 801
15.16 795
15.18 820
15.2 838
15.22 861
15.24 806
15.26 816
15.28 822
15.3 797
15.32 809
15.34 835
15.36 838
15.38 861
15.4 814
15.42 806
15.44 813
15.46 829
15.48 865
15.5 848
15.52 847
15.54 859
15.56 919
15.58 863
15.6 845
15.62 883
15.64 882
15.66 877
15.68 939
15.7 824
15.72 870
15.74 835
15.76 919
15.78 903
15.8 897
15.82 892
15.84 883
15.86 896
15.88 917
15.9 900
15.92 924
15.94 948
15.96 884
15.98 915
16 883
16.02 938
16.04 999
16.06 927
16.08 966
16.1 904
16.12 1003
16.14 967
16.16 925
16.18 939
16.2 926
16.22 989
16.24 980
16.26 906
16.28 974
16.3 967
16.32 917
16.34 906
16.36 893
16.38 969
16.4 1047
16.42 993
16.44 1020
16.46 976
16.48 1034
16.5 990
16.52 1003
16.54 1031
16.56 971
16.58 926
16.6 977
16.62 961
16.64 1014
16.66 964
16.68 1010
16.7 979
16.72 982
16.74 1008
16.76 1055
16.78 1045
16.8 982
16.82 1071
16.84 1032
16.86 1032
16.88 1031
16.9 1059
16.92 1099
16.94 1169
16.96 1162
16.98 1186
17 1160
17.02 1092
17.04 1145
17.06 1059
17.08 1069
17.1 1074
17.12 1073
17.14 1121
17.16 1113
17.18 1082
17.2 1138
17.22 1098
17.24 1116
17.26 1138
17.28 1109
17.3 1075
17.32 1175
17.34 1127
17.36 1174
17.38 1126
17.4 1087
17.42 1118
17.44 1171
17.46 1150
17.48 1210
17.5 1143
17.52 1137
17.54 1097
17.56 1067
17.58 1110
17.6 1114
17.62 1158
17.64 1152
17.66 1162
17.68 1116
17.7 1111
17.72 1123
17.74 1138
17.76 1151
17.78 1079
17.8 1133
17.82 1179
17.84 1156
17.86 1148
17.88 1125
17.9 1153
17.92 1184
17.94 1182
17.96 1213
17.98 1144
18 1114
18.02 1163
18.04 1237
18.06 1202
18.08 1166
18.1 1206
18.12 1225
18.14 1172
18.16 1181
18.18 1209
18.2 1160
18.22 1167
18.24 1136
18.26 1266
18.28 1278
18.3 1204
18.32 1146
18.34 1281
18.36 1210
18.38 1184
18.4 1233
18.42 1219
18.44 1234
18.46 1169
18.48 1258
18.5 1283
18.52 1240
18.54 1242
18.56 1202
18.58 1231
18.6 1282
18.62 1298
18.64 1323
18.66 1387
18.68 1314
18.7 1326
18.72 1326
18.74 1249
18.76 1306
18.78 1363
18.8 1378
18.82 1301
18.84 1275
18.86 1248
18.88 1315
18.9 1343
18.92 1329
18.94 1390
18.96 1315
18.98 1398
19 1401
19.02 1351
19.04 1294
19.06 1341
19.08 1332
19.1 1340
19.12 1331
19.14 1266
19.16 1395
19.18 1399
19.2 1342
19.22 1362
19.24 1452
19.26 1416
19.28 1437
19.3 1418
19.32 1470
19.34 1439
19.36 1521
19.38 1522
19.4 1598
19.42 1634
19.44 1696
19.46 1772
19.48 1734
19.5 1646
19.52 1629
19.54 1600
19.56 1650
19.58 1551
19.6 1582
19.62 1565
19.64 1502
19.66 1515
19.68 1482
19.7 1474
19.72 1487
19.74 1498
19.76 1377
19.78 1420
19.8 1416
19.82 1431
19.84 1482
19.86 1481
19.88 1456
19.9 1479
19.92 1451
19.94 1524
19.96 1544
19.98 1492
20 1480