File: xrd-UiO-67/pxrddata/38-28.ASC
3 3148
3.02 2862
3.04 2740
3.06 2638
3.08 2530
3.1 2486
3.12 2457
3.14 2512
3.16 2432
3.18 2444
3.2 2413
3.22 2319
3.24 2434
3.26 2334
3.28 2208
3.3 2185
3.32 2125
3.34 2163
3.36 2189
3.38 2046
3.4 2031
3.42 1951
3.44 2091
3.46 1936
3.48 1903
3.5 1847
3.52 1904
3.54 1849
3.56 1850
3.58 1836
3.6 1756
3.62 1807
3.64 1753
3.66 1657
3.68 1712
3.7 1719
3.72 1686
3.74 1582
3.76 1543
3.78 1585
3.8 1613
3.82 1538
3.84 1540
3.86 1487
3.88 1539
3.9 1546
3.92 1497
3.94 1492
3.96 1381
3.98 1493
4 1419
4.02 1450
4.04 1407
4.06 1352
4.08 1349
4.1 1314
4.12 1286
4.14 1318
4.16 1312
4.18 1316
4.2 1232
4.22 1340
4.24 1245
4.26 1248
4.28 1254
4.3 1187
4.32 1201
4.34 1236
4.36 1197
4.38 1197
4.4 1199
4.42 1213
4.44 1190
4.46 1134
4.48 1140
4.5 1089
4.52 1048
4.54 1092
4.56 1081
4.58 1123
4.6 1107
4.62 1083
4.64 1093
4.66 1034
4.68 1079
4.7 1059
4.72 1028
4.74 1060
4.76 1057
4.78 1094
4.8 1057
4.82 1025
4.84 1063
4.86 981
4.88 1023
4.9 1062
4.92 1003
4.94 968
4.96 990
4.98 965
5 925
5.02 992
5.04 997
5.06 973
5.08 1064
5.1 944
5.12 1028
5.14 984
5.16 1005
5.18 1086
5.2 1068
5.22 1066
5.24 1012
5.26 1072
5.28 1029
5.3 1086
5.32 1167
5.34 1104
5.36 1274
5.38 1318
5.4 1306
5.42 1396
5.44 1411
5.46 1280
5.48 1200
5.5 1155
5.52 1033
5.54 1050
5.56 1015
5.58 1010
5.6 955
5.62 926
5.64 967
5.66 912
5.68 876
5.7 923
5.72 897
5.74 925
5.76 880
5.78 854
5.8 894
5.82 910
5.84 893
5.86 867
5.88 857
5.9 825
5.92 812
5.94 870
5.96 767
5.98 822
6 809
6.02 814
6.04 760
6.06 788
6.08 742
6.1 799
6.12 788
6.14 806
6.16 855
6.18 784
6.2 808
6.22 796
6.24 799
6.26 719
6.28 804
6.3 788
6.32 748
6.34 728
6.36 725
6.38 771
6.4 779
6.42 784
6.44 758
6.46 739
6.48 784
6.5 752
6.52 755
6.54 807
6.56 747
6.58 798
6.6 757
6.62 762
6.64 776
6.66 776
6.68 739
6.7 739
6.72 750
6.74 726
6.76 778
6.78 795
6.8 731
6.82 746
6.84 750
6.86 746
6.88 752
6.9 712
6.92 725
6.94 772
6.96 728
6.98 761
7 695
7.02 766
7.04 741
7.06 754
7.08 762
7.1 759
7.12 720
7.14 760
7.16 710
7.18 697
7.2 778
7.22 702
7.24 732
7.26 683
7.28 716
7.3 736
7.32 764
7.34 750
7.36 774
7.38 708
7.4 738
7.42 750
7.44 725
7.46 730
7.48 788
7.5 773
7.52 701
7.54 718
7.56 755
7.58 749
7.6 734
7.62 752
7.64 765
7.66 755
7.68 703
7.7 776
7.72 767
7.74 737
7.76 733
7.78 743
7.8 745
7.82 752
7.84 679
7.86 751
7.88 715
7.9 746
7.92 777
7.94 750
7.96 814
7.98 716
8 719
8.02 732
8.04 751
8.06 757
8.08 768
8.1 748
8.12 732
8.14 733
8.16 740
8.18 779
8.2 742
8.22 753
8.24 713
8.26 753
8.28 800
8.3 779
8.32 728
8.34 730
8.36 725
8.38 714
8.4 782
8.42 752
8.44 754
8.46 734
8.48 711
8.5 754
8.52 767
8.54 759
8.56 798
8.58 733
8.6 760
8.62 803
8.64 760
8.66 721
8.68 701
8.7 724
8.72 750
8.74 760
8.76 749
8.78 721
8.8 739
8.82 781
8.84 715
8.86 746
8.88 712
8.9 792
8.92 738
8.94 767
8.96 733
8.98 777
9 771
9.02 745
9.04 757
9.06 780
9.08 741
9.1 733
9.12 801
9.14 744
9.16 738
9.18 793
9.2 803
9.22 816
9.24 812
9.26 812
9.28 848
9.3 853
9.32 868
9.34 931
9.36 937
9.38 920
9.4 830
9.42 803
9.44 767
9.46 762
9.48 743
9.5 740
9.52 795
9.54 724
9.56 786
9.58 754
9.6 799
9.62 777
9.64 752
9.66 766
9.68 725
9.7 787
9.72 766
9.74 717
9.76 795
9.78 774
9.8 795
9.82 756
9.84 752
9.86 730
9.88 809
9.9 765
9.92 730
9.94 802
9.96 765
9.98 760
10 770
10.02 807
10.04 738
10.06 773
10.08 757
10.1 775
10.12 774
10.14 742
10.16 808
10.18 779
10.2 758
10.22 771
10.24 761
10.26 788
10.28 740
10.3 762
10.32 761
10.34 765
10.36 782
10.38 796
10.4 787
10.42 767
10.44 770
10.46 781
10.48 783
10.5 742
10.52 790
10.54 821
10.56 818
10.58 786
10.6 750
10.62 778
10.64 803
10.66 812
10.68 834
10.7 837
10.72 818
10.74 837
10.76 767
10.78 871
10.8 864
10.82 862
10.84 859
10.86 797
10.88 867
10.9 770
10.92 788
10.94 841
10.96 837
10.98 776
11 844
11.02 805
11.04 844
11.06 834
11.08 851
11.1 841
11.12 825
11.14 746
11.16 770
11.18 813
11.2 751
11.22 840
11.24 846
11.26 802
11.28 807
11.3 829
11.32 775
11.34 781
11.36 757
11.38 797
11.4 814
11.42 805
11.44 838
11.46 814
11.48 828
11.5 822
11.52 825
11.54 818
11.56 759
11.58 845
11.6 836
11.62 840
11.64 839
11.66 817
11.68 878
11.7 861
11.72 917
11.74 799
11.76 804
11.78 836
11.8 829
11.82 875
11.84 882
11.86 903
11.88 872
11.9 849
11.92 870
11.94 790
11.96 845
11.98 876
12 866
12.02 872
12.04 827
12.06 846
12.08 851
12.1 902
12.12 831
12.14 875
12.16 894
12.18 898
12.2 865
12.22 816
12.24 872
12.26 869
12.28 886
12.3 889
12.32 940
12.34 881
12.36 836
12.38 879
12.4 908
12.42 898
12.44 922
12.46 891
12.48 905
12.5 853
12.52 890
12.54 885
12.56 875
12.58 870
12.6 932
12.62 916
12.64 901
12.66 955
12.68 874
12.7 859
12.72 924
12.74 966
12.76 880
12.78 913
12.8 925
12.82 886
12.84 949
12.86 961
12.88 891
12.9 863
12.92 897
12.94 902
12.96 898
12.98 929
13 916
13.02 917
13.04 967
13.06 1017
13.08 956
13.1 897
13.12 980
13.14 972
13.16 941
13.18 940
13.2 947
13.22 970
13.24 992
13.26 976
13.28 955
13.3 996
13.32 1006
13.34 979
13.36 981
13.38 981
13.4 966
13.42 967
13.44 984
13.46 969
13.48 952
13.5 982
13.52 907
13.54 981
13.56 950
13.58 1035
13.6 979
13.62 949
13.64 1034
13.66 1039
13.68 1009
13.7 1027
13.72 1064
13.74 1000
13.76 1005
13.78 1033
13.8 1004
13.82 1026
13.84 1056
13.86 1014
13.88 1016
13.9 995
13.92 973
13.94 1023
13.96 1069
13.98 1035
14 1019
14.02 1028
14.04 1019
14.06 1045
14.08 1102
14.1 1027
14.12 1041
14.14 1066
14.16 1042
14.18 1018
14.2 1046
14.22 1109
14.24 1104
14.26 1104
14.28 1128
14.3 1108
14.32 1074
14.34 1089
14.36 1076
14.38 1151
14.4 1149
14.42 1102
14.44 1111
14.46 1106
14.48 1124
14.5 1139
14.52 1151
14.54 1139
14.56 1125
14.58 1104
14.6 1129
14.62 1120
14.64 1131
14.66 1125
14.68 1214
14.7 1207
14.72 1155
14.74 1087
14.76 1140
14.78 1190
14.8 1186
14.82 1164
14.84 1168
14.86 1221
14.88 1130
14.9 1217
14.92 1184
14.94 1193
14.96 1198
14.98 1147
15 1233
15.02 1125
15.04 1210
15.06 1227
15.08 1178
15.1 1187
15.12 1200
15.14 1251
15.16 1214
15.18 1269
15.2 1239
15.22 1264
15.24 1257
15.26 1224
15.28 1263
15.3 1267
15.32 1211
15.34 1304
15.36 1189
15.38 1255
15.4 1247
15.42 1267
15.44 1232
15.46 1243
15.48 1292
15.5 1258
15.52 1250
15.54 1284
15.56 1291
15.58 1299
15.6 1294
15.62 1271
15.64 1306
15.66 1353
15.68 1366
15.7 1371
15.72 1322
15.74 1331
15.76 1289
15.78 1341
15.8 1328
15.82 1363
15.84 1387
15.86 1324
15.88 1357
15.9 1354
15.92 1374
15.94 1371
15.96 1367
15.98 1358
16 1382
16.02 1371
16.04 1445
16.06 1373
16.08 1358
16.1 1365
16.12 1406
16.14 1425
16.16 1408
16.18 1470
16.2 1499
16.22 1481
16.24 1438
16.26 1480
16.28 1425
16.3 1495
16.32 1438
16.34 1515
16.36 1443
16.38 1511
16.4 1474
16.42 1549
16.44 1468
16.46 1453
16.48 1468
16.5 1525
16.52 1475
16.54 1437
16.56 1550
16.58 1530
16.6 1583
16.62 1528
16.64 1595
16.66 1548
16.68 1531
16.7 1636
16.72 1633
16.74 1630
16.76 1695
16.78 1684
16.8 1673
16.82 1799
16.84 1813
16.86 1806
16.88 1874
16.9 1878
16.92 2119
16.94 2194
16.96 2352
16.98 2389
17 2470
17.02 2456
17.04 2418
17.06 2165
17.08 2030
17.1 1909
17.12 1863
17.14 1694
17.16 1740
17.18 1707
17.2 1708
17.22 1750
17.24 1739
17.26 1731
17.28 1706
17.3 1748
17.32 1732
17.34 1750
17.36 1691
17.38 1697
17.4 1805
17.42 1641
17.44 1760
17.46 1715
17.48 1769
17.5 1728
17.52 1777
17.54 1776
17.56 1772
17.58 1821
17.6 1798
17.62 1844
17.64 1842
17.66 1797
17.68 1810
17.7 1817
17.72 1876
17.74 1845
17.76 1839
17.78 1916
17.8 1852
17.82 1866
17.84 1894
17.86 1924
17.88 1956
17.9 1871
17.92 1869
17.94 1836
17.96 1947
17.98 1880
18 1962
18.02 1922
18.04 1931
18.06 1917
18.08 1911
18.1 1961
18.12 1986
18.14 1928
18.16 1976
18.18 1983
18.2 2009
18.22 2002
18.24 2017
18.26 1916
18.28 2027
18.3 2017
18.32 2020
18.34 2040
18.36 2005
18.38 1946
18.4 1955
18.42 1972
18.44 1981
18.46 2045
18.48 2062
18.5 2018
18.52 2064
18.54 2088
18.56 2044
18.58 1988
18.6 2161
18.62 2027
18.64 2133
18.66 2063
18.68 2038
18.7 2082
18.72 2148
18.74 2036
18.76 2090
18.78 2133
18.8 2144
18.82 2178
18.84 2134
18.86 2266
18.88 2140
18.9 2122
18.92 2141
18.94 2094
18.96 2183
18.98 2176
19 2184
19.02 2257
19.04 2129
19.06 2253
19.08 2240
19.1 2156
19.12 2245
19.14 2329
19.16 2335
19.18 2250
19.2 2220
19.22 2306
19.24 2228
19.26 2247
19.28 2195
19.3 2231
19.32 2305
19.34 2206
19.36 2358
19.38 2375
19.4 2309
19.42 2271
19.44 2316
19.46 2342
19.48 2317
19.5 2351
19.52 2299
19.54 2296
19.56 2370
19.58 2345
19.6 2336
19.62 2405
19.64 2260
19.66 2297
19.68 2391
19.7 2398
19.72 2399
19.74 2345
19.76 2353
19.78 2355
19.8 2442
19.82 2343
19.84 2494
19.86 2410
19.88 2417
19.9 2364
19.92 2394
19.94 2412
19.96 2473
19.98 2421
20 2407