File: xrd-UiO-67/pxrddata/38-2.ASC
3 3404
3.02 3346
3.04 3214
3.06 3022
3.08 2770
3.1 2685
3.12 2723
3.14 2600
3.16 2567
3.18 2470
3.2 2503
3.22 2404
3.24 2435
3.26 2428
3.28 2344
3.3 2329
3.32 2240
3.34 2239
3.36 2198
3.38 2237
3.4 2126
3.42 2147
3.44 2094
3.46 2078
3.48 2041
3.5 1966
3.52 1926
3.54 2002
3.56 1878
3.58 1886
3.6 1891
3.62 1882
3.64 1808
3.66 1762
3.68 1821
3.7 1686
3.72 1660
3.74 1684
3.76 1670
3.78 1675
3.8 1620
3.82 1624
3.84 1566
3.86 1584
3.88 1550
3.9 1523
3.92 1559
3.94 1504
3.96 1489
3.98 1408
4 1506
4.02 1486
4.04 1424
4.06 1403
4.08 1387
4.1 1415
4.12 1399
4.14 1389
4.16 1328
4.18 1318
4.2 1397
4.22 1317
4.24 1262
4.26 1233
4.28 1243
4.3 1261
4.32 1236
4.34 1240
4.36 1271
4.38 1238
4.4 1209
4.42 1211
4.44 1184
4.46 1169
4.48 1132
4.5 1182
4.52 1161
4.54 1162
4.56 1121
4.58 1157
4.6 1067
4.62 1046
4.64 1105
4.66 1084
4.68 1048
4.7 1146
4.72 1082
4.74 1011
4.76 1030
4.78 1041
4.8 1045
4.82 986
4.84 1013
4.86 1059
4.88 1020
4.9 1002
4.92 1016
4.94 923
4.96 958
4.98 1000
5 944
5.02 983
5.04 977
5.06 931
5.08 952
5.1 921
5.12 973
5.14 963
5.16 901
5.18 879
5.2 891
5.22 931
5.24 863
5.26 884
5.28 837
5.3 934
5.32 858
5.34 895
5.36 856
5.38 834
5.4 845
5.42 903
5.44 826
5.46 821
5.48 799
5.5 819
5.52 835
5.54 836
5.56 783
5.58 790
5.6 797
5.62 816
5.64 837
5.66 820
5.68 819
5.7 783
5.72 800
5.74 861
5.76 814
5.78 793
5.8 802
5.82 796
5.84 762
5.86 747
5.88 760
5.9 728
5.92 785
5.94 748
5.96 755
5.98 754
6 715
6.02 728
6.04 800
6.06 739
6.08 760
6.1 752
6.12 785
6.14 705
6.16 768
6.18 718
6.2 751
6.22 705
6.24 741
6.26 701
6.28 718
6.3 712
6.32 706
6.34 727
6.36 724
6.38 708
6.4 707
6.42 719
6.44 674
6.46 692
6.48 698
6.5 667
6.52 706
6.54 737
6.56 749
6.58 699
6.6 675
6.62 685
6.64 682
6.66 705
6.68 703
6.7 665
6.72 741
6.74 709
6.76 726
6.78 669
6.8 637
6.82 684
6.84 710
6.86 684
6.88 698
6.9 666
6.92 718
6.94 619
6.96 649
6.98 680
7 681
7.02 684
7.04 649
7.06 684
7.08 635
7.1 675
7.12 656
7.14 627
7.16 606
7.18 634
7.2 628
7.22 653
7.24 641
7.26 624
7.28 633
7.3 658
7.32 617
7.34 634
7.36 670
7.38 619
7.4 592
7.42 607
7.44 585
7.46 597
7.48 630
7.5 652
7.52 617
7.54 582
7.56 643
7.58 600
7.6 645
7.62 593
7.64 611
7.66 637
7.68 610
7.7 575
7.72 585
7.74 592
7.76 627
7.78 632
7.8 608
7.82 542
7.84 629
7.86 641
7.88 570
7.9 570
7.92 582
7.94 589
7.96 614
7.98 609
8 592
8.02 570
8.04 587
8.06 598
8.08 591
8.1 608
8.12 591
8.14 621
8.16 577
8.18 586
8.2 547
8.22 570
8.24 589
8.26 597
8.28 602
8.3 565
8.32 617
8.34 540
8.36 593
8.38 599
8.4 608
8.42 601
8.44 580
8.46 561
8.48 540
8.5 574
8.52 606
8.54 592
8.56 574
8.58 581
8.6 587
8.62 555
8.64 608
8.66 590
8.68 543
8.7 498
8.72 545
8.74 601
8.76 579
8.78 595
8.8 586
8.82 596
8.84 601
8.86 527
8.88 540
8.9 564
8.92 567
8.94 526
8.96 537
8.98 583
9 529
9.02 532
9.04 551
9.06 535
9.08 533
9.1 541
9.12 541
9.14 559
9.16 551
9.18 561
9.2 555
9.22 545
9.24 493
9.26 534
9.28 579
9.3 552
9.32 580
9.34 542
9.36 487
9.38 549
9.4 542
9.42 583
9.44 555
9.46 506
9.48 508
9.5 534
9.52 556
9.54 537
9.56 544
9.58 539
9.6 537
9.62 496
9.64 513
9.66 541
9.68 516
9.7 577
9.72 512
9.74 573
9.76 518
9.78 561
9.8 518
9.82 497
9.84 522
9.86 507
9.88 510
9.9 494
9.92 549
9.94 529
9.96 517
9.98 546
10 526
10.02 525
10.04 518
10.06 543
10.08 527
10.1 565
10.12 506
10.14 513
10.16 516
10.18 530
10.2 510
10.22 495
10.24 520
10.26 518
10.28 543
10.3 534
10.32 502
10.34 522
10.36 512
10.38 509
10.4 515
10.42 503
10.44 515
10.46 507
10.48 551
10.5 518
10.52 507
10.54 533
10.56 520
10.58 523
10.6 506
10.62 519
10.64 526
10.66 539
10.68 528
10.7 548
10.72 555
10.74 537
10.76 524
10.78 534
10.8 475
10.82 532
10.84 491
10.86 513
10.88 510
10.9 486
10.92 507
10.94 541
10.96 510
10.98 503
11 520
11.02 481
11.04 492
11.06 528
11.08 546
11.1 522
11.12 525
11.14 497
11.16 487
11.18 516
11.2 458
11.22 498
11.24 510
11.26 513
11.28 500
11.3 490
11.32 458
11.34 517
11.36 513
11.38 539
11.4 507
11.42 491
11.44 495
11.46 461
11.48 495
11.5 475
11.52 459
11.54 489
11.56 532
11.58 523
11.6 518
11.62 491
11.64 532
11.66 553
11.68 470
11.7 520
11.72 495
11.74 476
11.76 567
11.78 505
11.8 526
11.82 505
11.84 492
11.86 506
11.88 517
11.9 543
11.92 485
11.94 495
11.96 544
11.98 499
12 488
12.02 488
12.04 484
12.06 507
12.08 503
12.1 520
12.12 559
12.14 519
12.16 499
12.18 527
12.2 528
12.22 524
12.24 534
12.26 531
12.28 475
12.3 505
12.32 467
12.34 517
12.36 531
12.38 518
12.4 492
12.42 528
12.44 500
12.46 530
12.48 518
12.5 524
12.52 486
12.54 489
12.56 515
12.58 503
12.6 518
12.62 493
12.64 566
12.66 493
12.68 492
12.7 501
12.72 508
12.74 542
12.76 487
12.78 527
12.8 511
12.82 476
12.84 522
12.86 458
12.88 549
12.9 497
12.92 565
12.94 510
12.96 506
12.98 533
13 516
13.02 527
13.04 554
13.06 556
13.08 518
13.1 539
13.12 530
13.14 541
13.16 527
13.18 530
13.2 539
13.22 572
13.24 570
13.26 546
13.28 536
13.3 525
13.32 546
13.34 512
13.36 532
13.38 521
13.4 538
13.42 538
13.44 508
13.46 519
13.48 538
13.5 527
13.52 503
13.54 537
13.56 553
13.58 532
13.6 508
13.62 526
13.64 537
13.66 537
13.68 542
13.7 526
13.72 539
13.74 516
13.76 545
13.78 569
13.8 512
13.82 549
13.84 576
13.86 527
13.88 522
13.9 554
13.92 535
13.94 529
13.96 546
13.98 537
14 529
14.02 540
14.04 553
14.06 557
14.08 533
14.1 553
14.12 515
14.14 525
14.16 570
14.18 555
14.2 564
14.22 568
14.24 563
14.26 520
14.28 577
14.3 576
14.32 575
14.34 533
14.36 561
14.38 586
14.4 544
14.42 563
14.44 534
14.46 570
14.48 573
14.5 593
14.52 575
14.54 589
14.56 596
14.58 582
14.6 605
14.62 577
14.64 563
14.66 538
14.68 586
14.7 588
14.72 563
14.74 588
14.76 568
14.78 530
14.8 579
14.82 598
14.84 560
14.86 588
14.88 591
14.9 584
14.92 591
14.94 571
14.96 598
14.98 591
15 586
15.02 580
15.04 603
15.06 566
15.08 578
15.1 609
15.12 570
15.14 637
15.16 581
15.18 618
15.2 591
15.22 563
15.24 599
15.26 608
15.28 566
15.3 638
15.32 606
15.34 574
15.36 595
15.38 625
15.4 587
15.42 554
15.44 602
15.46 590
15.48 627
15.5 596
15.52 613
15.54 575
15.56 607
15.58 631
15.6 607
15.62 623
15.64 609
15.66 639
15.68 663
15.7 619
15.72 622
15.74 584
15.76 639
15.78 673
15.8 651
15.82 634
15.84 619
15.86 590
15.88 610
15.9 673
15.92 632
15.94 618
15.96 649
15.98 652
16 623
16.02 628
16.04 610
16.06 672
16.08 629
16.1 608
16.12 668
16.14 657
16.16 675
16.18 621
16.2 698
16.22 670
16.24 628
16.26 664
16.28 694
16.3 650
16.32 712
16.34 721
16.36 631
16.38 650
16.4 662
16.42 714
16.44 661
16.46 688
16.48 699
16.5 663
16.52 685
16.54 735
16.56 746
16.58 725
16.6 752
16.62 743
16.64 770
16.66 835
16.68 773
16.7 823
16.72 890
16.74 911
16.76 906
16.78 1027
16.8 1062
16.82 1177
16.84 1321
16.86 1490
16.88 1674
16.9 1931
16.92 2203
16.94 2444
16.96 2543
16.98 2402
17 2084
17.02 1762
17.04 1355
17.06 1176
17.08 947
17.1 888
17.12 858
17.14 868
17.16 792
17.18 806
17.2 802
17.22 763
17.24 765
17.26 784
17.28 751
17.3 785
17.32 760
17.34 716
17.36 780
17.38 773
17.4 728
17.42 762
17.44 779
17.46 751
17.48 775
17.5 772
17.52 811
17.54 815
17.56 790
17.58 778
17.6 772
17.62 789
17.64 792
17.66 807
17.68 808
17.7 801
17.72 813
17.74 795
17.76 793
17.78 803
17.8 848
17.82 815
17.84 793
17.86 797
17.88 846
17.9 762
17.92 769
17.94 817
17.96 807
17.98 874
18 859
18.02 795
18.04 820
18.06 806
18.08 815
18.1 809
18.12 862
18.14 872
18.16 810
18.18 865
18.2 826
18.22 887
18.24 847
18.26 872
18.28 792
18.3 853
18.32 871
18.34 863
18.36 852
18.38 870
18.4 855
18.42 880
18.44 906
18.46 893
18.48 887
18.5 897
18.52 849
18.54 906
18.56 886
18.58 880
18.6 906
18.62 901
18.64 902
18.66 856
18.68 948
18.7 899
18.72 872
18.74 955
18.76 871
18.78 919
18.8 917
18.82 941
18.84 883
18.86 964
18.88 923
18.9 909
18.92 893
18.94 924
18.96 893
18.98 940
19 855
19.02 956
19.04 960
19.06 963
19.08 857
19.1 933
19.12 925
19.14 922
19.16 908
19.18 954
19.2 977
19.22 968
19.24 953
19.26 996
19.28 955
19.3 953
19.32 971
19.34 996
19.36 937
19.38 965
19.4 966
19.42 949
19.44 987
19.46 975
19.48 1053
19.5 994
19.52 948
19.54 993
19.56 998
19.58 957
19.6 1026
19.62 1005
19.64 985
19.66 1025
19.68 1017
19.7 1013
19.72 1033
19.74 1040
19.76 1028
19.78 1032
19.8 996
19.82 1006
19.84 978
19.86 1029
19.88 1015
19.9 1032
19.92 999
19.94 988
19.96 1055
19.98 1086
20 1073