File: xrd-UiO-67/pxrddata/38-23.ASC
3 2568
3.02 2365
3.04 2225
3.06 2116
3.08 1989
3.1 1983
3.12 2053
3.14 1949
3.16 2031
3.18 1965
3.2 1939
3.22 1943
3.24 1920
3.26 1826
3.28 1847
3.3 1874
3.32 1813
3.34 1726
3.36 1723
3.38 1709
3.4 1615
3.42 1671
3.44 1631
3.46 1609
3.48 1535
3.5 1468
3.52 1501
3.54 1492
3.56 1488
3.58 1468
3.6 1399
3.62 1388
3.64 1419
3.66 1368
3.68 1346
3.7 1429
3.72 1365
3.74 1330
3.76 1289
3.78 1285
3.8 1347
3.82 1269
3.84 1298
3.86 1300
3.88 1292
3.9 1191
3.92 1287
3.94 1158
3.96 1260
3.98 1229
4 1208
4.02 1184
4.04 1181
4.06 1186
4.08 1217
4.1 1230
4.12 1149
4.14 1157
4.16 1118
4.18 1099
4.2 1109
4.22 1132
4.24 1137
4.26 1102
4.28 1109
4.3 1104
4.32 1148
4.34 1083
4.36 1068
4.38 1093
4.4 1053
4.42 1024
4.44 1064
4.46 1029
4.48 1071
4.5 1039
4.52 990
4.54 975
4.56 1006
4.58 1044
4.6 1060
4.62 979
4.64 989
4.66 954
4.68 1034
4.7 999
4.72 951
4.74 954
4.76 959
4.78 929
4.8 942
4.82 918
4.84 923
4.86 916
4.88 960
4.9 856
4.92 881
4.94 939
4.96 914
4.98 919
5 954
5.02 883
5.04 888
5.06 886
5.08 845
5.1 869
5.12 877
5.14 878
5.16 854
5.18 900
5.2 829
5.22 832
5.24 859
5.26 896
5.28 827
5.3 848
5.32 860
5.34 821
5.36 807
5.38 833
5.4 820
5.42 835
5.44 807
5.46 773
5.48 855
5.5 815
5.52 818
5.54 819
5.56 869
5.58 805
5.6 775
5.62 805
5.64 805
5.66 804
5.68 775
5.7 802
5.72 801
5.74 824
5.76 895
5.78 836
5.8 772
5.82 822
5.84 771
5.86 757
5.88 782
5.9 783
5.92 811
5.94 820
5.96 790
5.98 785
6 753
6.02 795
6.04 789
6.06 741
6.08 805
6.1 789
6.12 771
6.14 795
6.16 803
6.18 805
6.2 796
6.22 744
6.24 824
6.26 778
6.28 781
6.3 765
6.32 728
6.34 779
6.36 807
6.38 767
6.4 778
6.42 744
6.44 766
6.46 766
6.48 774
6.5 734
6.52 723
6.54 754
6.56 779
6.58 762
6.6 742
6.62 737
6.64 777
6.66 758
6.68 782
6.7 703
6.72 711
6.74 769
6.76 794
6.78 760
6.8 793
6.82 763
6.84 762
6.86 782
6.88 759
6.9 804
6.92 785
6.94 727
6.96 686
6.98 743
7 739
7.02 745
7.04 767
7.06 736
7.08 746
7.1 760
7.12 708
7.14 735
7.16 766
7.18 799
7.2 693
7.22 723
7.24 756
7.26 748
7.28 780
7.3 736
7.32 764
7.34 748
7.36 751
7.38 750
7.4 743
7.42 789
7.44 795
7.46 718
7.48 753
7.5 701
7.52 740
7.54 748
7.56 775
7.58 756
7.6 743
7.62 708
7.64 765
7.66 793
7.68 761
7.7 786
7.72 700
7.74 728
7.76 735
7.78 734
7.8 733
7.82 817
7.84 722
7.86 724
7.88 763
7.9 749
7.92 787
7.94 754
7.96 725
7.98 759
8 731
8.02 773
8.04 749
8.06 745
8.08 762
8.1 712
8.12 804
8.14 765
8.16 761
8.18 713
8.2 753
8.22 748
8.24 753
8.26 767
8.28 760
8.3 749
8.32 761
8.34 767
8.36 761
8.38 753
8.4 742
8.42 826
8.44 755
8.46 819
8.48 842
8.5 751
8.52 753
8.54 770
8.56 782
8.58 755
8.6 788
8.62 770
8.64 803
8.66 755
8.68 768
8.7 820
8.72 829
8.74 815
8.76 824
8.78 880
8.8 859
8.82 917
8.84 852
8.86 953
8.88 973
8.9 1078
8.92 1135
8.94 1272
8.96 1378
8.98 1574
9 1660
9.02 1741
9.04 1631
9.06 1425
9.08 1215
9.1 1009
9.12 912
9.14 748
9.16 797
9.18 758
9.2 760
9.22 772
9.24 793
9.26 735
9.28 766
9.3 766
9.32 734
9.34 765
9.36 771
9.38 784
9.4 771
9.42 736
9.44 733
9.46 773
9.48 769
9.5 814
9.52 751
9.54 754
9.56 831
9.58 800
9.6 849
9.62 793
9.64 792
9.66 778
9.68 803
9.7 811
9.72 869
9.74 854
9.76 863
9.78 851
9.8 908
9.82 901
9.84 877
9.86 986
9.88 1018
9.9 1068
9.92 1204
9.94 1248
9.96 1277
9.98 1290
10 1182
10.02 1001
10.04 882
10.06 814
10.08 783
10.1 735
10.12 802
10.14 746
10.16 743
10.18 727
10.2 756
10.22 759
10.24 785
10.26 755
10.28 747
10.3 739
10.32 736
10.34 695
10.36 705
10.38 707
10.4 785
10.42 717
10.44 737
10.46 756
10.48 753
10.5 723
10.52 708
10.54 706
10.56 703
10.58 732
10.6 713
10.62 761
10.64 750
10.66 695
10.68 778
10.7 712
10.72 680
10.74 704
10.76 671
10.78 690
10.8 701
10.82 687
10.84 758
10.86 709
10.88 652
10.9 764
10.92 744
10.94 742
10.96 761
10.98 686
11 736
11.02 754
11.04 741
11.06 762
11.08 735
11.1 732
11.12 739
11.14 678
11.16 742
11.18 744
11.2 714
11.22 742
11.24 742
11.26 761
11.28 726
11.3 718
11.32 702
11.34 730
11.36 740
11.38 730
11.4 692
11.42 672
11.44 730
11.46 766
11.48 701
11.5 730
11.52 794
11.54 680
11.56 721
11.58 724
11.6 716
11.62 677
11.64 733
11.66 710
11.68 742
11.7 763
11.72 737
11.74 752
11.76 690
11.78 721
11.8 720
11.82 713
11.84 714
11.86 747
11.88 721
11.9 725
11.92 716
11.94 756
11.96 717
11.98 682
12 710
12.02 700
12.04 710
12.06 715
12.08 717
12.1 729
12.12 709
12.14 748
12.16 721
12.18 771
12.2 697
12.22 687
12.24 759
12.26 746
12.28 751
12.3 717
12.32 721
12.34 657
12.36 725
12.38 694
12.4 729
12.42 770
12.44 729
12.46 732
12.48 770
12.5 797
12.52 733
12.54 689
12.56 729
12.58 741
12.6 689
12.62 711
12.64 753
12.66 778
12.68 804
12.7 789
12.72 805
12.74 801
12.76 812
12.78 805
12.8 750
12.82 736
12.84 726
12.86 739
12.88 712
12.9 722
12.92 705
12.94 726
12.96 711
12.98 739
13 731
13.02 736
13.04 770
13.06 737
13.08 746
13.1 719
13.12 782
13.14 774
13.16 773
13.18 768
13.2 748
13.22 760
13.24 760
13.26 788
13.28 802
13.3 809
13.32 826
13.34 895
13.36 863
13.38 839
13.4 935
13.42 932
13.44 920
13.46 889
13.48 874
13.5 851
13.52 820
13.54 768
13.56 777
13.58 805
13.6 739
13.62 813
13.64 800
13.66 718
13.68 793
13.7 705
13.72 760
13.74 757
13.76 761
13.78 769
13.8 760
13.82 751
13.84 780
13.86 729
13.88 755
13.9 740
13.92 759
13.94 755
13.96 778
13.98 767
14 761
14.02 773
14.04 759
14.06 731
14.08 776
14.1 766
14.12 756
14.14 745
14.16 782
14.18 722
14.2 788
14.22 778
14.24 765
14.26 791
14.28 782
14.3 783
14.32 772
14.34 759
14.36 771
14.38 770
14.4 777
14.42 747
14.44 821
14.46 776
14.48 801
14.5 779
14.52 811
14.54 784
14.56 761
14.58 780
14.6 814
14.62 791
14.64 784
14.66 804
14.68 787
14.7 780
14.72 773
14.74 806
14.76 789
14.78 817
14.8 829
14.82 792
14.84 821
14.86 771
14.88 815
14.9 812
14.92 838
14.94 848
14.96 826
14.98 833
15 768
15.02 837
15.04 805
15.06 835
15.08 781
15.1 824
15.12 816
15.14 869
15.16 860
15.18 803
15.2 803
15.22 853
15.24 866
15.26 895
15.28 875
15.3 859
15.32 843
15.34 819
15.36 810
15.38 832
15.4 782
15.42 830
15.44 840
15.46 857
15.48 808
15.5 839
15.52 858
15.54 847
15.56 852
15.58 790
15.6 855
15.62 875
15.64 842
15.66 821
15.68 834
15.7 871
15.72 868
15.74 914
15.76 871
15.78 916
15.8 846
15.82 841
15.84 881
15.86 909
15.88 857
15.9 864
15.92 838
15.94 854
15.96 884
15.98 868
16 839
16.02 925
16.04 918
16.06 851
16.08 937
16.1 882
16.12 888
16.14 875
16.16 888
16.18 865
16.2 937
16.22 906
16.24 904
16.26 933
16.28 875
16.3 884
16.32 921
16.34 947
16.36 900
16.38 840
16.4 879
16.42 940
16.44 913
16.46 1023
16.48 959
16.5 969
16.52 929
16.54 977
16.56 961
16.58 965
16.6 1011
16.62 983
16.64 995
16.66 996
16.68 947
16.7 1037
16.72 1089
16.74 1025
16.76 1046
16.78 1113
16.8 1134
16.82 1177
16.84 1178
16.86 1317
16.88 1346
16.9 1425
16.92 1603
16.94 1763
16.96 1834
16.98 1903
17 1864
17.02 1780
17.04 1611
17.06 1493
17.08 1287
17.1 1187
17.12 1166
17.14 1087
17.16 1016
17.18 1016
17.2 1047
17.22 1056
17.24 1046
17.26 1055
17.28 1022
17.3 1006
17.32 1059
17.34 1041
17.36 996
17.38 1039
17.4 1005
17.42 1072
17.44 1059
17.46 1045
17.48 1000
17.5 1016
17.52 1064
17.54 1010
17.56 1025
17.58 1063
17.6 1082
17.62 1038
17.64 1037
17.66 1096
17.68 1024
17.7 1030
17.72 1101
17.74 1188
17.76 1130
17.78 1073
17.8 1090
17.82 1135
17.84 1087
17.86 1062
17.88 1122
17.9 1033
17.92 1094
17.94 1158
17.96 1163
17.98 1147
18 1086
18.02 1144
18.04 1114
18.06 1125
18.08 1126
18.1 1141
18.12 1070
18.14 1138
18.16 1136
18.18 1125
18.2 1135
18.22 1125
18.24 1166
18.26 1134
18.28 1149
18.3 1210
18.32 1205
18.34 1195
18.36 1103
18.38 1159
18.4 1208
18.42 1131
18.44 1200
18.46 1149
18.48 1170
18.5 1211
18.52 1177
18.54 1261
18.56 1218
18.58 1186
18.6 1177
18.62 1180
18.64 1174
18.66 1197
18.68 1203
18.7 1240
18.72 1187
18.74 1161
18.76 1247
18.78 1205
18.8 1208
18.82 1252
18.84 1213
18.86 1216
18.88 1170
18.9 1262
18.92 1247
18.94 1264
18.96 1282
18.98 1245
19 1294
19.02 1240
19.04 1197
19.06 1267
19.08 1295
19.1 1282
19.12 1254
19.14 1246
19.16 1250
19.18 1289
19.2 1242
19.22 1275
19.24 1267
19.26 1257
19.28 1270
19.3 1251
19.32 1299
19.34 1261
19.36 1301
19.38 1298
19.4 1322
19.42 1305
19.44 1349
19.46 1279
19.48 1320
19.5 1383
19.52 1378
19.54 1344
19.56 1355
19.58 1334
19.6 1398
19.62 1318
19.64 1314
19.66 1372
19.68 1362
19.7 1360
19.72 1406
19.74 1386
19.76 1371
19.78 1336
19.8 1389
19.82 1322
19.84 1375
19.86 1426
19.88 1392
19.9 1416
19.92 1455
19.94 1441
19.96 1448
19.98 1458
20 1418