File: xrd-UiO-67/pxrddata/38-21.ASC
3 3192
3.02 3031
3.04 2859
3.06 2691
3.08 2553
3.1 2534
3.12 2442
3.14 2475
3.16 2366
3.18 2378
3.2 2324
3.22 2377
3.24 2244
3.26 2245
3.28 2222
3.3 2043
3.32 2006
3.34 2128
3.36 2045
3.38 2055
3.4 1976
3.42 1968
3.44 1986
3.46 1951
3.48 1917
3.5 1909
3.52 1838
3.54 1804
3.56 1825
3.58 1756
3.6 1751
3.62 1710
3.64 1677
3.66 1654
3.68 1660
3.7 1698
3.72 1692
3.74 1651
3.76 1628
3.78 1614
3.8 1616
3.82 1596
3.84 1556
3.86 1548
3.88 1556
3.9 1505
3.92 1497
3.94 1516
3.96 1421
3.98 1425
4 1411
4.02 1426
4.04 1350
4.06 1412
4.08 1351
4.1 1456
4.12 1360
4.14 1336
4.16 1367
4.18 1359
4.2 1255
4.22 1299
4.24 1262
4.26 1300
4.28 1307
4.3 1261
4.32 1311
4.34 1250
4.36 1303
4.38 1223
4.4 1182
4.42 1225
4.44 1227
4.46 1208
4.48 1209
4.5 1188
4.52 1191
4.54 1150
4.56 1215
4.58 1137
4.6 1135
4.62 1148
4.64 1152
4.66 1117
4.68 1169
4.7 1181
4.72 1175
4.74 1122
4.76 1142
4.78 1124
4.8 1142
4.82 1059
4.84 1125
4.86 1131
4.88 1116
4.9 1163
4.92 1174
4.94 1105
4.96 1109
4.98 1141
5 1151
5.02 1187
5.04 1165
5.06 1144
5.08 1171
5.1 1199
5.12 1261
5.14 1285
5.16 1321
5.18 1368
5.2 1406
5.22 1279
5.24 1271
5.26 1386
5.28 1431
5.3 1470
5.32 1453
5.34 1482
5.36 1612
5.38 1681
5.4 1700
5.42 1787
5.44 1888
5.46 2015
5.48 2177
5.5 2334
5.52 2441
5.54 2622
5.56 2919
5.58 3307
5.6 3406
5.62 3773
5.64 4391
5.66 5110
5.68 6010
5.7 7749
5.72 11514
5.74 19684
5.76 19468
5.78 7465
5.8 2353
5.82 1578
5.84 1385
5.86 1322
5.88 1340
5.9 1185
5.92 1166
5.94 1045
5.96 1050
5.98 1019
6 1057
6.02 1045
6.04 958
6.06 979
6.08 958
6.1 954
6.12 974
6.14 1036
6.16 988
6.18 988
6.2 1003
6.22 977
6.24 1050
6.26 1067
6.28 1037
6.3 1070
6.32 1137
6.34 1194
6.36 1224
6.38 1297
6.4 1308
6.42 1386
6.44 1421
6.46 1570
6.48 1587
6.5 1642
6.52 1804
6.54 1977
6.56 2329
6.58 2760
6.6 3490
6.62 4796
6.64 4262
6.66 1997
6.68 1052
6.7 881
6.72 851
6.74 858
6.76 838
6.78 793
6.8 770
6.82 764
6.84 723
6.86 725
6.88 671
6.9 706
6.92 676
6.94 712
6.96 757
6.98 721
7 713
7.02 715
7.04 685
7.06 680
7.08 667
7.1 732
7.12 708
7.14 681
7.16 688
7.18 631
7.2 626
7.22 620
7.24 658
7.26 657
7.28 648
7.3 682
7.32 655
7.34 649
7.36 638
7.38 654
7.4 644
7.42 652
7.44 639
7.46 584
7.48 665
7.5 607
7.52 615
7.54 701
7.56 664
7.58 647
7.6 650
7.62 603
7.64 637
7.66 616
7.68 610
7.7 631
7.72 626
7.74 632
7.76 630
7.78 631
7.8 613
7.82 633
7.84 611
7.86 623
7.88 607
7.9 566
7.92 631
7.94 649
7.96 595
7.98 594
8 583
8.02 614
8.04 567
8.06 565
8.08 551
8.1 588
8.12 620
8.14 630
8.16 593
8.18 621
8.2 632
8.22 590
8.24 566
8.26 571
8.28 568
8.3 556
8.32 591
8.34 557
8.36 611
8.38 616
8.4 598
8.42 618
8.44 637
8.46 567
8.48 594
8.5 596
8.52 598
8.54 601
8.56 600
8.58 550
8.6 569
8.62 607
8.64 548
8.66 629
8.68 580
8.7 592
8.72 650
8.74 620
8.76 627
8.78 614
8.8 619
8.82 579
8.84 614
8.86 587
8.88 621
8.9 625
8.92 634
8.94 644
8.96 678
8.98 667
9 722
9.02 734
9.04 784
9.06 724
9.08 769
9.1 770
9.12 868
9.14 940
9.16 957
9.18 1061
9.2 1106
9.22 1145
9.24 1287
9.26 1502
9.28 1650
9.3 2092
9.32 2541
9.34 3675
9.36 4445
9.38 2892
9.4 1371
9.42 738
9.44 628
9.46 626
9.48 614
9.5 597
9.52 583
9.54 622
9.56 593
9.58 571
9.6 578
9.62 549
9.64 552
9.66 566
9.68 587
9.7 528
9.72 587
9.74 597
9.76 589
9.78 538
9.8 594
9.82 570
9.84 558
9.86 559
9.88 543
9.9 586
9.92 576
9.94 575
9.96 540
9.98 539
10 519
10.02 567
10.04 535
10.06 538
10.08 528
10.1 519
10.12 568
10.14 527
10.16 529
10.18 578
10.2 591
10.22 557
10.24 551
10.26 581
10.28 561
10.3 603
10.32 578
10.34 548
10.36 555
10.38 581
10.4 465
10.42 522
10.44 553
10.46 564
10.48 584
10.5 553
10.52 574
10.54 557
10.56 563
10.58 575
10.6 594
10.62 571
10.64 656
10.66 598
10.68 669
10.7 693
10.72 752
10.74 757
10.76 858
10.78 782
10.8 914
10.82 975
10.84 1045
10.86 1084
10.88 1283
10.9 1534
10.92 1790
10.94 2410
10.96 3274
10.98 2791
11 1715
11.02 865
11.04 643
11.06 635
11.08 606
11.1 631
11.12 678
11.14 615
11.16 617
11.18 657
11.2 662
11.22 671
11.24 700
11.26 738
11.28 733
11.3 802
11.32 874
11.34 868
11.36 1001
11.38 1246
11.4 1332
11.42 1780
11.44 2544
11.46 3007
11.48 2232
11.5 1383
11.52 744
11.54 641
11.56 608
11.58 517
11.6 547
11.62 593
11.64 554
11.66 500
11.68 568
11.7 536
11.72 543
11.74 535
11.76 523
11.78 562
11.8 512
11.82 537
11.84 515
11.86 524
11.88 533
11.9 488
11.92 542
11.94 552
11.96 544
11.98 520
12 536
12.02 528
12.04 566
12.06 559
12.08 520
12.1 540
12.12 535
12.14 519
12.16 544
12.18 559
12.2 534
12.22 542
12.24 535
12.26 510
12.28 558
12.3 518
12.32 541
12.34 510
12.36 524
12.38 559
12.4 577
12.42 530
12.44 522
12.46 518
12.48 520
12.5 537
12.52 556
12.54 536
12.56 509
12.58 519
12.6 542
12.62 519
12.64 491
12.66 528
12.68 572
12.7 561
12.72 520
12.74 537
12.76 526
12.78 484
12.8 514
12.82 539
12.84 491
12.86 545
12.88 550
12.9 544
12.92 545
12.94 556
12.96 586
12.98 558
13 592
13.02 569
13.04 579
13.06 566
13.08 604
13.1 618
13.12 611
13.14 674
13.16 714
13.18 728
13.2 858
13.22 960
13.24 862
13.26 755
13.28 621
13.3 551
13.32 550
13.34 527
13.36 579
13.38 520
13.4 538
13.42 590
13.44 539
13.46 548
13.48 509
13.5 533
13.52 543
13.54 573
13.56 561
13.58 538
13.6 513
13.62 553
13.64 524
13.66 597
13.68 571
13.7 543
13.72 544
13.74 547
13.76 519
13.78 584
13.8 565
13.82 602
13.84 614
13.86 570
13.88 505
13.9 590
13.92 579
13.94 569
13.96 548
13.98 556
14 526
14.02 573
14.04 519
14.06 532
14.08 567
14.1 614
14.12 582
14.14 548
14.16 568
14.18 579
14.2 572
14.22 620
14.24 610
14.26 663
14.28 659
14.3 649
14.32 682
14.34 723
14.36 778
14.38 848
14.4 944
14.42 1042
14.44 856
14.46 811
14.48 601
14.5 595
14.52 577
14.54 566
14.56 586
14.58 593
14.6 561
14.62 541
14.64 627
14.66 632
14.68 617
14.7 655
14.72 616
14.74 605
14.76 621
14.78 666
14.8 669
14.82 563
14.84 608
14.86 567
14.88 557
14.9 563
14.92 578
14.94 632
14.96 578
14.98 606
15 591
15.02 612
15.04 617
15.06 623
15.08 621
15.1 617
15.12 607
15.14 583
15.16 571
15.18 644
15.2 633
15.22 624
15.24 600
15.26 628
15.28 609
15.3 600
15.32 634
15.34 660
15.36 606
15.38 611
15.4 629
15.42 633
15.44 611
15.46 575
15.48 639
15.5 615
15.52 622
15.54 640
15.56 645
15.58 615
15.6 634
15.62 590
15.64 638
15.66 639
15.68 636
15.7 606
15.72 623
15.74 686
15.76 635
15.78 643
15.8 665
15.82 648
15.84 623
15.86 648
15.88 618
15.9 613
15.92 630
15.94 655
15.96 619
15.98 644
16 670
16.02 636
16.04 629
16.06 675
16.08 644
16.1 694
16.12 636
16.14 658
16.16 659
16.18 671
16.2 638
16.22 681
16.24 625
16.26 643
16.28 672
16.3 689
16.32 678
16.34 671
16.36 654
16.38 643
16.4 691
16.42 687
16.44 702
16.46 694
16.48 649
16.5 705
16.52 645
16.54 687
16.56 683
16.58 643
16.6 691
16.62 674
16.64 748
16.66 683
16.68 699
16.7 689
16.72 689
16.74 707
16.76 711
16.78 725
16.8 652
16.82 680
16.84 686
16.86 691
16.88 722
16.9 761
16.92 761
16.94 831
16.96 762
16.98 795
17 776
17.02 749
17.04 795
17.06 778
17.08 830
17.1 837
17.12 917
17.14 932
17.16 985
17.18 1094
17.2 1174
17.22 972
17.24 949
17.26 808
17.28 776
17.3 729
17.32 775
17.34 812
17.36 757
17.38 721
17.4 747
17.42 797
17.44 803
17.46 781
17.48 748
17.5 758
17.52 784
17.54 776
17.56 731
17.58 753
17.6 778
17.62 806
17.64 798
17.66 743
17.68 808
17.7 752
17.72 758
17.74 777
17.76 754
17.78 788
17.8 796
17.82 783
17.84 785
17.86 769
17.88 777
17.9 769
17.92 816
17.94 788
17.96 798
17.98 795
18 792
18.02 846
18.04 793
18.06 802
18.08 783
18.1 781
18.12 748
18.14 772
18.16 815
18.18 794
18.2 826
18.22 837
18.24 839
18.26 833
18.28 822
18.3 795
18.32 856
18.34 859
18.36 865
18.38 803
18.4 829
18.42 860
18.44 867
18.46 824
18.48 856
18.5 863
18.52 937
18.54 860
18.56 881
18.58 843
18.6 856
18.62 862
18.64 903
18.66 858
18.68 851
18.7 853
18.72 946
18.74 821
18.76 902
18.78 883
18.8 899
18.82 855
18.84 866
18.86 875
18.88 891
18.9 942
18.92 895
18.94 914
18.96 917
18.98 921
19 917
19.02 868
19.04 931
19.06 945
19.08 919
19.1 926
19.12 944
19.14 895
19.16 965
19.18 941
19.2 1019
19.22 953
19.24 938
19.26 927
19.28 941
19.3 995
19.32 956
19.34 964
19.36 958
19.38 980
19.4 1016
19.42 998
19.44 1083
19.46 1126
19.48 1234
19.5 1290
19.52 1301
19.54 1584
19.56 1978
19.58 2210
19.6 2118
19.62 1665
19.64 1592
19.66 1286
19.68 1093
19.7 1114
19.72 1195
19.74 1275
19.76 1307
19.78 1420
19.8 1614
19.82 1880
19.84 2430
19.86 2873
19.88 2607
19.9 2012
19.92 1833
19.94 1366
19.96 1066
19.98 1062
20 1005