File: xrd-UiO-67/pxrddata/38-22.ASC
3 2189
3.02 1973
3.04 1896
3.06 1876
3.08 1668
3.1 1675
3.12 1591
3.14 1609
3.16 1629
3.18 1515
3.2 1505
3.22 1482
3.24 1533
3.26 1521
3.28 1481
3.3 1420
3.32 1391
3.34 1382
3.36 1393
3.38 1367
3.4 1361
3.42 1370
3.44 1291
3.46 1425
3.48 1311
3.5 1386
3.52 1275
3.54 1243
3.56 1238
3.58 1243
3.6 1237
3.62 1236
3.64 1235
3.66 1258
3.68 1167
3.7 1185
3.72 1217
3.74 1228
3.76 1100
3.78 1161
3.8 1145
3.82 1081
3.84 1078
3.86 1190
3.88 1117
3.9 1142
3.92 1092
3.94 1077
3.96 1059
3.98 1062
4 1052
4.02 997
4.04 1051
4.06 1013
4.08 963
4.1 1048
4.12 1012
4.14 998
4.16 1055
4.18 969
4.2 986
4.22 945
4.24 944
4.26 953
4.28 958
4.3 951
4.32 915
4.34 898
4.36 929
4.38 935
4.4 958
4.42 868
4.44 864
4.46 862
4.48 852
4.5 851
4.52 891
4.54 861
4.56 814
4.58 804
4.6 812
4.62 839
4.64 840
4.66 817
4.68 858
4.7 839
4.72 828
4.74 793
4.76 836
4.78 770
4.8 771
4.82 758
4.84 814
4.86 796
4.88 813
4.9 779
4.92 821
4.94 821
4.96 795
4.98 793
5 799
5.02 785
5.04 807
5.06 847
5.08 838
5.1 862
5.12 887
5.14 852
5.16 860
5.18 918
5.2 938
5.22 980
5.24 1010
5.26 1018
5.28 1092
5.3 1050
5.32 1120
5.34 1214
5.36 1277
5.38 1356
5.4 1426
5.42 1598
5.44 1748
5.46 1841
5.48 2060
5.5 2117
5.52 2219
5.54 2114
5.56 1893
5.58 1546
5.6 1304
5.62 1143
5.64 1119
5.66 1166
5.68 1092
5.7 1091
5.72 1050
5.74 1099
5.76 1002
5.78 1107
5.8 1045
5.82 1064
5.84 1034
5.86 987
5.88 951
5.9 939
5.92 819
5.94 806
5.96 845
5.98 769
6 724
6.02 728
6.04 713
6.06 710
6.08 627
6.1 666
6.12 648
6.14 631
6.16 617
6.18 613
6.2 616
6.22 630
6.24 598
6.26 622
6.28 622
6.3 635
6.32 585
6.34 603
6.36 573
6.38 595
6.4 577
6.42 632
6.44 578
6.46 621
6.48 555
6.5 566
6.52 595
6.54 600
6.56 556
6.58 633
6.6 584
6.62 581
6.64 595
6.66 584
6.68 582
6.7 568
6.72 614
6.74 595
6.76 582
6.78 594
6.8 605
6.82 598
6.84 585
6.86 657
6.88 558
6.9 586
6.92 587
6.94 584
6.96 562
6.98 560
7 559
7.02 562
7.04 590
7.06 571
7.08 600
7.1 556
7.12 543
7.14 541
7.16 548
7.18 587
7.2 525
7.22 555
7.24 589
7.26 574
7.28 578
7.3 582
7.32 568
7.34 539
7.36 570
7.38 541
7.4 597
7.42 515
7.44 533
7.46 533
7.48 562
7.5 537
7.52 498
7.54 556
7.56 541
7.58 551
7.6 531
7.62 588
7.64 511
7.66 550
7.68 504
7.7 546
7.72 532
7.74 561
7.76 525
7.78 541
7.8 546
7.82 528
7.84 569
7.86 535
7.88 527
7.9 513
7.92 567
7.94 529
7.96 512
7.98 546
8 572
8.02 542
8.04 514
8.06 547
8.08 531
8.1 550
8.12 507
8.14 502
8.16 533
8.18 521
8.2 497
8.22 539
8.24 492
8.26 532
8.28 513
8.3 497
8.32 521
8.34 517
8.36 503
8.38 493
8.4 558
8.42 549
8.44 503
8.46 561
8.48 558
8.5 513
8.52 504
8.54 509
8.56 534
8.58 542
8.6 534
8.62 525
8.64 500
8.66 497
8.68 508
8.7 519
8.72 522
8.74 517
8.76 514
8.78 533
8.8 548
8.82 529
8.84 547
8.86 509
8.88 549
8.9 534
8.92 531
8.94 573
8.96 532
8.98 531
9 481
9.02 564
9.04 552
9.06 533
9.08 524
9.1 573
9.12 601
9.14 590
9.16 586
9.18 607
9.2 608
9.22 617
9.24 618
9.26 615
9.28 647
9.3 719
9.32 771
9.34 859
9.36 842
9.38 942
9.4 1004
9.42 1024
9.44 1003
9.46 1012
9.48 847
9.5 683
9.52 628
9.54 583
9.56 567
9.58 514
9.6 522
9.62 535
9.64 551
9.66 514
9.68 544
9.7 536
9.72 520
9.74 557
9.76 499
9.78 549
9.8 537
9.82 521
9.84 541
9.86 528
9.88 527
9.9 515
9.92 493
9.94 512
9.96 524
9.98 471
10 552
10.02 519
10.04 544
10.06 520
10.08 555
10.1 529
10.12 515
10.14 549
10.16 523
10.18 519
10.2 545
10.22 548
10.24 528
10.26 546
10.28 532
10.3 544
10.32 518
10.34 519
10.36 553
10.38 537
10.4 498
10.42 476
10.44 548
10.46 507
10.48 527
10.5 490
10.52 522
10.54 534
10.56 572
10.58 517
10.6 517
10.62 569
10.64 516
10.66 581
10.68 550
10.7 552
10.72 619
10.74 643
10.76 647
10.78 644
10.8 698
10.82 725
10.84 752
10.86 738
10.88 832
10.9 768
10.92 714
10.94 694
10.96 688
10.98 663
11 615
11.02 596
11.04 581
11.06 643
11.08 606
11.1 603
11.12 572
11.14 547
11.16 530
11.18 524
11.2 500
11.22 527
11.24 532
11.26 573
11.28 501
11.3 504
11.32 510
11.34 513
11.36 528
11.38 486
11.4 480
11.42 541
11.44 514
11.46 498
11.48 488
11.5 554
11.52 465
11.54 509
11.56 525
11.58 519
11.6 539
11.62 492
11.64 515
11.66 537
11.68 541
11.7 553
11.72 543
11.74 527
11.76 513
11.78 519
11.8 492
11.82 470
11.84 491
11.86 485
11.88 513
11.9 512
11.92 500
11.94 501
11.96 520
11.98 526
12 501
12.02 519
12.04 498
12.06 547
12.08 527
12.1 519
12.12 525
12.14 515
12.16 523
12.18 552
12.2 528
12.22 529
12.24 532
12.26 509
12.28 527
12.3 560
12.32 542
12.34 573
12.36 512
12.38 573
12.4 524
12.42 519
12.44 540
12.46 549
12.48 520
12.5 531
12.52 491
12.54 514
12.56 548
12.58 512
12.6 508
12.62 516
12.64 536
12.66 511
12.68 557
12.7 535
12.72 495
12.74 472
12.76 492
12.78 531
12.8 493
12.82 517
12.84 561
12.86 551
12.88 558
12.9 535
12.92 551
12.94 530
12.96 510
12.98 543
13 554
13.02 524
13.04 544
13.06 566
13.08 535
13.1 578
13.12 557
13.14 558
13.16 548
13.18 567
13.2 544
13.22 541
13.24 575
13.26 568
13.28 536
13.3 558
13.32 560
13.34 570
13.36 586
13.38 538
13.4 593
13.42 588
13.44 562
13.46 570
13.48 542
13.5 586
13.52 555
13.54 556
13.56 613
13.58 542
13.6 556
13.62 575
13.64 600
13.66 559
13.68 606
13.7 587
13.72 623
13.74 590
13.76 594
13.78 593
13.8 550
13.82 604
13.84 569
13.86 559
13.88 567
13.9 578
13.92 572
13.94 594
13.96 566
13.98 534
14 566
14.02 594
14.04 566
14.06 588
14.08 571
14.1 621
14.12 594
14.14 567
14.16 618
14.18 603
14.2 583
14.22 617
14.24 608
14.26 639
14.28 630
14.3 622
14.32 623
14.34 601
14.36 630
14.38 641
14.4 665
14.42 628
14.44 599
14.46 677
14.48 589
14.5 647
14.52 592
14.54 642
14.56 645
14.58 652
14.6 633
14.62 605
14.64 626
14.66 609
14.68 633
14.7 609
14.72 701
14.74 650
14.76 678
14.78 635
14.8 625
14.82 601
14.84 632
14.86 605
14.88 684
14.9 633
14.92 656
14.94 641
14.96 667
14.98 638
15 661
15.02 607
15.04 683
15.06 620
15.08 688
15.1 641
15.12 628
15.14 675
15.16 677
15.18 666
15.2 634
15.22 656
15.24 659
15.26 657
15.28 699
15.3 657
15.32 683
15.34 695
15.36 688
15.38 717
15.4 667
15.42 686
15.44 708
15.46 657
15.48 658
15.5 714
15.52 688
15.54 726
15.56 649
15.58 658
15.6 704
15.62 698
15.64 695
15.66 650
15.68 725
15.7 657
15.72 695
15.74 713
15.76 683
15.78 628
15.8 724
15.82 714
15.84 681
15.86 689
15.88 738
15.9 694
15.92 681
15.94 739
15.96 681
15.98 708
16 670
16.02 754
16.04 691
16.06 740
16.08 748
16.1 743
16.12 731
16.14 748
16.16 724
16.18 734
16.2 761
16.22 758
16.24 750
16.26 740
16.28 771
16.3 804
16.32 816
16.34 741
16.36 835
16.38 770
16.4 774
16.42 801
16.44 800
16.46 749
16.48 835
16.5 816
16.52 779
16.54 827
16.56 759
16.58 830
16.6 787
16.62 718
16.64 797
16.66 766
16.68 786
16.7 790
16.72 806
16.74 759
16.76 844
16.78 802
16.8 769
16.82 813
16.84 860
16.86 805
16.88 860
16.9 844
16.92 892
16.94 885
16.96 951
16.98 872
17 983
17.02 987
17.04 1057
17.06 1046
17.08 1013
17.1 1143
17.12 1070
17.14 1089
17.16 1014
17.18 986
17.2 962
17.22 861
17.24 854
17.26 959
17.28 928
17.3 933
17.32 901
17.34 943
17.36 871
17.38 898
17.4 933
17.42 920
17.44 931
17.46 918
17.48 914
17.5 936
17.52 962
17.54 944
17.56 949
17.58 863
17.6 927
17.62 938
17.64 906
17.66 922
17.68 885
17.7 927
17.72 949
17.74 874
17.76 903
17.78 877
17.8 955
17.82 1011
17.84 940
17.86 1019
17.88 958
17.9 936
17.92 969
17.94 992
17.96 950
17.98 1030
18 990
18.02 1015
18.04 1012
18.06 1016
18.08 989
18.1 970
18.12 987
18.14 1018
18.16 991
18.18 1047
18.2 1018
18.22 1023
18.24 1030
18.26 1032
18.28 971
18.3 1077
18.32 1078
18.34 1015
18.36 1003
18.38 989
18.4 1034
18.42 1039
18.44 1028
18.46 1015
18.48 1026
18.5 1036
18.52 1078
18.54 1053
18.56 1046
18.58 1096
18.6 1082
18.62 1086
18.64 1127
18.66 1111
18.68 1116
18.7 1072
18.72 1149
18.74 1088
18.76 1157
18.78 1120
18.8 1192
18.82 1150
18.84 1137
18.86 1129
18.88 1125
18.9 1120
18.92 1152
18.94 1095
18.96 1093
18.98 1156
19 1133
19.02 1146
19.04 1164
19.06 1132
19.08 1178
19.1 1195
19.12 1176
19.14 1242
19.16 1185
19.18 1166
19.2 1172
19.22 1182
19.24 1159
19.26 1202
19.28 1119
19.3 1169
19.32 1211
19.34 1223
19.36 1250
19.38 1154
19.4 1238
19.42 1319
19.44 1220
19.46 1231
19.48 1305
19.5 1314
19.52 1306
19.54 1416
19.56 1384
19.58 1302
19.6 1312
19.62 1346
19.64 1274
19.66 1343
19.68 1332
19.7 1245
19.72 1299
19.74 1271
19.76 1301
19.78 1208
19.8 1293
19.82 1278
19.84 1346
19.86 1321
19.88 1288
19.9 1309
19.92 1238
19.94 1274
19.96 1236
19.98 1313
20 1257