File: xrd-UiO-67/pxrddata/38-26.ASC
3 3394
3.02 3335
3.04 3142
3.06 2966
3.08 2902
3.1 2874
3.12 2750
3.14 2640
3.16 2622
3.18 2643
3.2 2600
3.22 2594
3.24 2547
3.26 2512
3.28 2448
3.3 2446
3.32 2498
3.34 2449
3.36 2455
3.38 2343
3.4 2361
3.42 2417
3.44 2452
3.46 2353
3.48 2352
3.5 2409
3.52 2340
3.54 2224
3.56 2261
3.58 2197
3.6 2258
3.62 2261
3.64 2219
3.66 2266
3.68 2232
3.7 2187
3.72 2251
3.74 2094
3.76 2241
3.78 2168
3.8 2100
3.82 2230
3.84 2155
3.86 2220
3.88 2070
3.9 2185
3.92 2110
3.94 2146
3.96 2171
3.98 2050
4 2139
4.02 2152
4.04 2138
4.06 2136
4.08 2101
4.1 2149
4.12 2117
4.14 2092
4.16 2063
4.18 1987
4.2 2102
4.22 2009
4.24 2087
4.26 2086
4.28 2067
4.3 2019
4.32 2000
4.34 2111
4.36 2078
4.38 2102
4.4 2111
4.42 2089
4.44 2035
4.46 2070
4.48 2051
4.5 2079
4.52 2044
4.54 2073
4.56 2049
4.58 2039
4.6 2033
4.62 2030
4.64 1965
4.66 2046
4.68 2020
4.7 2050
4.72 2055
4.74 1964
4.76 2075
4.78 2009
4.8 2053
4.82 1936
4.84 1937
4.86 1962
4.88 1988
4.9 1889
4.92 2005
4.94 1973
4.96 1907
4.98 1997
5 1928
5.02 1969
5.04 1970
5.06 2042
5.08 1995
5.1 1959
5.12 1901
5.14 1993
5.16 1954
5.18 2004
5.2 2014
5.22 1980
5.24 2010
5.26 2034
5.28 2120
5.3 1999
5.32 2125
5.34 2116
5.36 2201
5.38 2343
5.4 2390
5.42 2375
5.44 2401
5.46 2247
5.48 2193
5.5 2177
5.52 2090
5.54 1961
5.56 1925
5.58 1873
5.6 1875
5.62 1896
5.64 1811
5.66 1739
5.68 1700
5.7 1684
5.72 1697
5.74 1739
5.76 1769
5.78 1654
5.8 1590
5.82 1566
5.84 1548
5.86 1466
5.88 1532
5.9 1458
5.92 1400
5.94 1393
5.96 1353
5.98 1381
6 1380
6.02 1368
6.04 1304
6.06 1366
6.08 1332
6.1 1263
6.12 1277
6.14 1310
6.16 1256
6.18 1298
6.2 1241
6.22 1232
6.24 1205
6.26 1184
6.28 1141
6.3 1228
6.32 1164
6.34 1150
6.36 1171
6.38 1153
6.4 1133
6.42 1138
6.44 1143
6.46 1207
6.48 1169
6.5 1114
6.52 1097
6.54 1087
6.56 1083
6.58 1077
6.6 1067
6.62 1041
6.64 1066
6.66 1051
6.68 1028
6.7 1021
6.72 1005
6.74 1083
6.76 1020
6.78 1066
6.8 1002
6.82 1051
6.84 998
6.86 1044
6.88 1012
6.9 1056
6.92 956
6.94 992
6.96 954
6.98 942
7 989
7.02 994
7.04 968
7.06 971
7.08 969
7.1 914
7.12 980
7.14 942
7.16 965
7.18 950
7.2 955
7.22 948
7.24 928
7.26 945
7.28 934
7.3 908
7.32 921
7.34 891
7.36 925
7.38 902
7.4 925
7.42 876
7.44 904
7.46 874
7.48 859
7.5 938
7.52 888
7.54 872
7.56 869
7.58 873
7.6 884
7.62 867
7.64 847
7.66 846
7.68 940
7.7 841
7.72 860
7.74 900
7.76 828
7.78 822
7.8 860
7.82 818
7.84 785
7.86 851
7.88 892
7.9 868
7.92 839
7.94 852
7.96 839
7.98 790
8 887
8.02 822
8.04 864
8.06 767
8.08 837
8.1 825
8.12 776
8.14 837
8.16 784
8.18 790
8.2 866
8.22 821
8.24 800
8.26 807
8.28 789
8.3 773
8.32 777
8.34 806
8.36 800
8.38 784
8.4 766
8.42 812
8.44 810
8.46 770
8.48 791
8.5 782
8.52 787
8.54 768
8.56 765
8.58 772
8.6 759
8.62 776
8.64 784
8.66 726
8.68 791
8.7 782
8.72 728
8.74 761
8.76 772
8.78 739
8.8 738
8.82 786
8.84 752
8.86 732
8.88 741
8.9 734
8.92 769
8.94 778
8.96 757
8.98 781
9 751
9.02 794
9.04 793
9.06 752
9.08 792
9.1 836
9.12 825
9.14 766
9.16 789
9.18 733
9.2 758
9.22 787
9.24 842
9.26 816
9.28 894
9.3 948
9.32 1004
9.34 922
9.36 943
9.38 931
9.4 917
9.42 850
9.44 865
9.46 784
9.48 800
9.5 778
9.52 730
9.54 765
9.56 732
9.58 747
9.6 734
9.62 732
9.64 748
9.66 685
9.68 700
9.7 728
9.72 701
9.74 662
9.76 705
9.78 701
9.8 685
9.82 743
9.84 680
9.86 684
9.88 732
9.9 672
9.92 731
9.94 671
9.96 650
9.98 666
10 693
10.02 657
10.04 690
10.06 664
10.08 686
10.1 698
10.12 740
10.14 640
10.16 677
10.18 634
10.2 713
10.22 663
10.24 651
10.26 669
10.28 630
10.3 634
10.32 706
10.34 685
10.36 604
10.38 620
10.4 673
10.42 649
10.44 603
10.46 627
10.48 675
10.5 639
10.52 679
10.54 638
10.56 661
10.58 624
10.6 662
10.62 636
10.64 639
10.66 674
10.68 710
10.7 686
10.72 666
10.74 683
10.76 693
10.78 757
10.8 724
10.82 735
10.84 736
10.86 708
10.88 674
10.9 660
10.92 759
10.94 665
10.96 648
10.98 646
11 673
11.02 693
11.04 628
11.06 624
11.08 636
11.1 602
11.12 646
11.14 648
11.16 642
11.18 590
11.2 629
11.22 576
11.24 614
11.26 588
11.28 640
11.3 657
11.32 588
11.34 580
11.36 603
11.38 593
11.4 578
11.42 615
11.44 643
11.46 568
11.48 626
11.5 585
11.52 595
11.54 573
11.56 631
11.58 586
11.6 607
11.62 618
11.64 544
11.66 606
11.68 570
11.7 555
11.72 618
11.74 573
11.76 578
11.78 607
11.8 569
11.82 594
11.84 612
11.86 617
11.88 588
11.9 561
11.92 593
11.94 599
11.96 584
11.98 583
12 598
12.02 582
12.04 592
12.06 613
12.08 574
12.1 645
12.12 573
12.14 554
12.16 539
12.18 553
12.2 533
12.22 546
12.24 578
12.26 563
12.28 597
12.3 562
12.32 607
12.34 602
12.36 544
12.38 563
12.4 533
12.42 566
12.44 550
12.46 595
12.48 556
12.5 551
12.52 578
12.54 566
12.56 567
12.58 553
12.6 584
12.62 523
12.64 547
12.66 523
12.68 586
12.7 560
12.72 507
12.74 546
12.76 563
12.78 571
12.8 570
12.82 586
12.84 534
12.86 601
12.88 556
12.9 554
12.92 569
12.94 515
12.96 596
12.98 544
13 571
13.02 588
13.04 556
13.06 553
13.08 585
13.1 557
13.12 579
13.14 578
13.16 579
13.18 620
13.2 629
13.22 605
13.24 657
13.26 681
13.28 701
13.3 723
13.32 666
13.34 626
13.36 616
13.38 584
13.4 574
13.42 542
13.44 560
13.46 607
13.48 598
13.5 544
13.52 578
13.54 540
13.56 554
13.58 548
13.6 508
13.62 571
13.64 550
13.66 515
13.68 520
13.7 597
13.72 548
13.74 580
13.76 528
13.78 556
13.8 586
13.82 556
13.84 532
13.86 513
13.88 554
13.9 560
13.92 568
13.94 567
13.96 547
13.98 548
14 519
14.02 558
14.04 551
14.06 516
14.08 546
14.1 566
14.12 575
14.14 567
14.16 539
14.18 578
14.2 581
14.22 554
14.24 542
14.26 567
14.28 519
14.3 583
14.32 579
14.34 592
14.36 539
14.38 544
14.4 570
14.42 536
14.44 541
14.46 565
14.48 525
14.5 541
14.52 544
14.54 542
14.56 544
14.58 539
14.6 578
14.62 515
14.64 519
14.66 541
14.68 535
14.7 580
14.72 574
14.74 572
14.76 549
14.78 574
14.8 549
14.82 553
14.84 537
14.86 524
14.88 532
14.9 536
14.92 583
14.94 548
14.96 522
14.98 558
15 545
15.02 549
15.04 552
15.06 598
15.08 557
15.1 553
15.12 538
15.14 562
15.16 584
15.18 597
15.2 569
15.22 565
15.24 566
15.26 597
15.28 599
15.3 604
15.32 608
15.34 601
15.36 636
15.38 647
15.4 529
15.42 580
15.44 540
15.46 582
15.48 576
15.5 560
15.52 560
15.54 535
15.56 576
15.58 628
15.6 546
15.62 603
15.64 578
15.66 559
15.68 600
15.7 549
15.72 578
15.74 574
15.76 583
15.78 534
15.8 566
15.82 602
15.84 549
15.86 551
15.88 581
15.9 535
15.92 600
15.94 564
15.96 521
15.98 568
16 558
16.02 603
16.04 557
16.06 593
16.08 627
16.1 591
16.12 586
16.14 582
16.16 595
16.18 575
16.2 586
16.22 597
16.24 642
16.26 628
16.28 644
16.3 634
16.32 664
16.34 665
16.36 638
16.38 663
16.4 641
16.42 648
16.44 698
16.46 682
16.48 734
16.5 741
16.52 714
16.54 689
16.56 758
16.58 826
16.6 836
16.62 861
16.64 891
16.66 947
16.68 952
16.7 1091
16.72 1175
16.74 1288
16.76 1442
16.78 1611
16.8 1860
16.82 2185
16.84 2490
16.86 2866
16.88 3424
16.9 4035
16.92 4925
16.94 5865
16.96 6905
16.98 7860
17 8454
17.02 8436
17.04 7614
17.06 6346
17.08 5092
17.1 3859
17.12 2847
17.14 2120
17.16 1661
17.18 1289
17.2 1118
17.22 1002
17.24 935
17.26 892
17.28 815
17.3 793
17.32 726
17.34 744
17.36 725
17.38 697
17.4 708
17.42 769
17.44 713
17.46 720
17.48 671
17.5 727
17.52 711
17.54 694
17.56 681
17.58 682
17.6 709
17.62 708
17.64 631
17.66 705
17.68 629
17.7 675
17.72 663
17.74 661
17.76 663
17.78 655
17.8 681
17.82 698
17.84 683
17.86 689
17.88 673
17.9 672
17.92 707
17.94 654
17.96 668
17.98 672
18 675
18.02 697
18.04 628
18.06 644
18.08 680
18.1 658
18.12 642
18.14 627
18.16 619
18.18 623
18.2 635
18.22 682
18.24 686
18.26 627
18.28 662
18.3 645
18.32 676
18.34 694
18.36 690
18.38 626
18.4 666
18.42 639
18.44 701
18.46 706
18.48 685
18.5 638
18.52 676
18.54 694
18.56 660
18.58 666
18.6 645
18.62 700
18.64 704
18.66 660
18.68 710
18.7 672
18.72 647
18.74 679
18.76 699
18.78 628
18.8 666
18.82 691
18.84 694
18.86 676
18.88 740
18.9 662
18.92 703
18.94 664
18.96 728
18.98 735
19 699
19.02 656
19.04 733
19.06 699
19.08 739
19.1 669
19.12 709
19.14 661
19.16 687
19.18 727
19.2 677
19.22 681
19.24 729
19.26 679
19.28 716
19.3 707
19.32 688
19.34 682
19.36 681
19.38 736
19.4 794
19.42 736
19.44 708
19.46 747
19.48 710
19.5 699
19.52 699
19.54 704
19.56 708
19.58 750
19.6 680
19.62 694
19.64 702
19.66 739
19.68 711
19.7 746
19.72 718
19.74 742
19.76 722
19.78 709
19.8 745
19.82 733
19.84 777
19.86 742
19.88 691
19.9 706
19.92 758
19.94 758
19.96 725
19.98 706
20 692