File: xrd-UiO-67/pxrddata/38-38-1.ASC
3 2263
3.02 2022
3.04 1958
3.06 1804
3.08 1696
3.1 1723
3.12 1557
3.14 1631
3.16 1651
3.18 1543
3.2 1527
3.22 1429
3.24 1573
3.26 1435
3.28 1464
3.3 1476
3.32 1442
3.34 1489
3.36 1492
3.38 1466
3.4 1449
3.42 1445
3.44 1436
3.46 1377
3.48 1397
3.5 1337
3.52 1391
3.54 1428
3.56 1376
3.58 1407
3.6 1372
3.62 1345
3.64 1372
3.66 1379
3.68 1422
3.7 1300
3.72 1307
3.74 1281
3.76 1387
3.78 1299
3.8 1327
3.82 1294
3.84 1299
3.86 1331
3.88 1313
3.9 1330
3.92 1309
3.94 1296
3.96 1246
3.98 1254
4 1238
4.02 1254
4.04 1240
4.06 1272
4.08 1240
4.1 1222
4.12 1237
4.14 1222
4.16 1278
4.18 1222
4.2 1219
4.22 1293
4.24 1207
4.26 1202
4.28 1203
4.3 1266
4.32 1184
4.34 1166
4.36 1245
4.38 1253
4.4 1193
4.42 1162
4.44 1194
4.46 1269
4.48 1199
4.5 1193
4.52 1200
4.54 1191
4.56 1274
4.58 1208
4.6 1185
4.62 1248
4.64 1152
4.66 1213
4.68 1245
4.7 1171
4.72 1219
4.74 1278
4.76 1180
4.78 1217
4.8 1217
4.82 1189
4.84 1182
4.86 1211
4.88 1301
4.9 1259
4.92 1255
4.94 1305
4.96 1241
4.98 1244
5 1218
5.02 1209
5.04 1257
5.06 1265
5.08 1291
5.1 1271
5.12 1327
5.14 1306
5.16 1279
5.18 1332
5.2 1356
5.22 1352
5.24 1450
5.26 1378
5.28 1425
5.3 1500
5.32 1452
5.34 1441
5.36 1556
5.38 1531
5.4 1602
5.42 1633
5.44 1733
5.46 1806
5.48 1803
5.5 2009
5.52 2043
5.54 2031
5.56 2061
5.58 2097
5.6 2005
5.62 1898
5.64 1798
5.66 1647
5.68 1560
5.7 1501
5.72 1445
5.74 1415
5.76 1334
5.78 1299
5.8 1261
5.82 1248
5.84 1278
5.86 1221
5.88 1194
5.9 1216
5.92 1206
5.94 1257
5.96 1146
5.98 1157
6 1155
6.02 1120
6.04 1071
6.06 1092
6.08 1100
6.1 1054
6.12 1057
6.14 1104
6.16 1008
6.18 1086
6.2 1041
6.22 1036
6.24 1117
6.26 1041
6.28 982
6.3 1049
6.32 984
6.34 990
6.36 957
6.38 930
6.4 1029
6.42 992
6.44 985
6.46 1004
6.48 966
6.5 987
6.52 981
6.54 976
6.56 911
6.58 936
6.6 935
6.62 894
6.64 928
6.66 879
6.68 928
6.7 902
6.72 908
6.74 916
6.76 862
6.78 924
6.8 904
6.82 929
6.84 915
6.86 898
6.88 842
6.9 892
6.92 856
6.94 813
6.96 878
6.98 895
7 826
7.02 841
7.04 852
7.06 827
7.08 882
7.1 789
7.12 800
7.14 856
7.16 809
7.18 815
7.2 807
7.22 797
7.24 821
7.26 814
7.28 844
7.3 770
7.32 813
7.34 818
7.36 778
7.38 809
7.4 845
7.42 814
7.44 777
7.46 741
7.48 761
7.5 781
7.52 788
7.54 823
7.56 783
7.58 737
7.6 745
7.62 816
7.64 788
7.66 795
7.68 786
7.7 793
7.72 726
7.74 704
7.76 770
7.78 785
7.8 752
7.82 746
7.84 770
7.86 761
7.88 727
7.9 795
7.92 801
7.94 746
7.96 747
7.98 705
8 719
8.02 740
8.04 732
8.06 713
8.08 676
8.1 706
8.12 737
8.14 740
8.16 726
8.18 738
8.2 762
8.22 692
8.24 728
8.26 705
8.28 737
8.3 729
8.32 704
8.34 730
8.36 681
8.38 705
8.4 708
8.42 758
8.44 671
8.46 715
8.48 680
8.5 713
8.52 734
8.54 671
8.56 696
8.58 710
8.6 674
8.62 747
8.64 770
8.66 719
8.68 706
8.7 706
8.72 747
8.74 706
8.76 712
8.78 715
8.8 755
8.82 695
8.84 766
8.86 744
8.88 732
8.9 718
8.92 699
8.94 752
8.96 676
8.98 736
9 692
9.02 771
9.04 742
9.06 741
9.08 778
9.1 767
9.12 778
9.14 758
9.16 790
9.18 805
9.2 774
9.22 800
9.24 821
9.26 848
9.28 841
9.3 825
9.32 870
9.34 844
9.36 908
9.38 924
9.4 909
9.42 984
9.44 957
9.46 962
9.48 975
9.5 998
9.52 943
9.54 979
9.56 853
9.58 870
9.6 767
9.62 811
9.64 743
9.66 701
9.68 771
9.7 690
9.72 712
9.74 660
9.76 726
9.78 697
9.8 674
9.82 657
9.84 665
9.86 650
9.88 698
9.9 652
9.92 640
9.94 680
9.96 678
9.98 678
10 678
10.02 646
10.04 700
10.06 667
10.08 603
10.1 636
10.12 663
10.14 683
10.16 710
10.18 646
10.2 651
10.22 672
10.24 666
10.26 664
10.28 617
10.3 656
10.32 637
10.34 638
10.36 630
10.38 628
10.4 647
10.42 622
10.44 614
10.46 599
10.48 621
10.5 631
10.52 683
10.54 624
10.56 651
10.58 636
10.6 635
10.62 643
10.64 617
10.66 636
10.68 633
10.7 587
10.72 610
10.74 681
10.76 655
10.78 709
10.8 718
10.82 698
10.84 723
10.86 694
10.88 744
10.9 717
10.92 737
10.94 748
10.96 727
10.98 711
11 674
11.02 646
11.04 684
11.06 689
11.08 653
11.1 661
11.12 639
11.14 561
11.16 623
11.18 656
11.2 621
11.22 603
11.24 601
11.26 619
11.28 621
11.3 563
11.32 581
11.34 607
11.36 616
11.38 556
11.4 569
11.42 569
11.44 588
11.46 635
11.48 568
11.5 591
11.52 587
11.54 585
11.56 589
11.58 578
11.6 564
11.62 552
11.64 624
11.66 587
11.68 545
11.7 559
11.72 578
11.74 554
11.76 561
11.78 593
11.8 569
11.82 544
11.84 544
11.86 561
11.88 577
11.9 573
11.92 552
11.94 547
11.96 580
11.98 586
12 548
12.02 561
12.04 582
12.06 590
12.08 654
12.1 610
12.12 598
12.14 586
12.16 602
12.18 576
12.2 567
12.22 540
12.24 575
12.26 576
12.28 524
12.3 582
12.32 545
12.34 602
12.36 574
12.38 568
12.4 585
12.42 569
12.44 573
12.46 557
12.48 540
12.5 573
12.52 546
12.54 597
12.56 567
12.58 563
12.6 523
12.62 537
12.64 580
12.66 589
12.68 587
12.7 556
12.72 570
12.74 614
12.76 584
12.78 587
12.8 527
12.82 542
12.84 560
12.86 540
12.88 523
12.9 585
12.92 575
12.94 624
12.96 584
12.98 554
13 574
13.02 576
13.04 584
13.06 582
13.08 560
13.1 534
13.12 559
13.14 555
13.16 576
13.18 569
13.2 588
13.22 599
13.24 568
13.26 592
13.28 634
13.3 665
13.32 611
13.34 638
13.36 655
13.38 662
13.4 666
13.42 637
13.44 690
13.46 614
13.48 621
13.5 632
13.52 572
13.54 562
13.56 592
13.58 556
13.6 535
13.62 585
13.64 555
13.66 591
13.68 607
13.7 565
13.72 562
13.74 540
13.76 567
13.78 580
13.8 566
13.82 537
13.84 526
13.86 562
13.88 558
13.9 544
13.92 559
13.94 546
13.96 552
13.98 559
14 516
14.02 536
14.04 593
14.06 546
14.08 563
14.1 516
14.12 588
14.14 560
14.16 542
14.18 546
14.2 520
14.22 537
14.24 557
14.26 566
14.28 526
14.3 568
14.32 575
14.34 552
14.36 527
14.38 507
14.4 532
14.42 591
14.44 578
14.46 552
14.48 570
14.5 513
14.52 583
14.54 610
14.56 566
14.58 529
14.6 561
14.62 555
14.64 615
14.66 542
14.68 500
14.7 524
14.72 533
14.74 540
14.76 566
14.78 549
14.8 501
14.82 552
14.84 589
14.86 539
14.88 549
14.9 575
14.92 555
14.94 586
14.96 539
14.98 522
15 528
15.02 570
15.04 505
15.06 542
15.08 541
15.1 557
15.12 527
15.14 527
15.16 570
15.18 569
15.2 566
15.22 541
15.24 548
15.26 571
15.28 555
15.3 575
15.32 567
15.34 573
15.36 578
15.38 568
15.4 599
15.42 557
15.44 614
15.46 555
15.48 540
15.5 609
15.52 586
15.54 615
15.56 627
15.58 549
15.6 542
15.62 577
15.64 549
15.66 555
15.68 524
15.7 575
15.72 548
15.74 525
15.76 545
15.78 534
15.8 548
15.82 568
15.84 542
15.86 560
15.88 541
15.9 587
15.92 534
15.94 539
15.96 574
15.98 534
16 530
16.02 570
16.04 562
16.06 552
16.08 573
16.1 544
16.12 516
16.14 539
16.16 601
16.18 575
16.2 559
16.22 555
16.24 580
16.26 550
16.28 611
16.3 582
16.32 585
16.34 601
16.36 600
16.38 654
16.4 589
16.42 631
16.44 574
16.46 567
16.48 634
16.5 601
16.52 635
16.54 670
16.56 688
16.58 727
16.6 717
16.62 757
16.64 743
16.66 753
16.68 797
16.7 777
16.72 829
16.74 921
16.76 1015
16.78 1063
16.8 1084
16.82 1217
16.84 1332
16.86 1501
16.88 1734
16.9 1932
16.92 2220
16.94 2655
16.96 3099
16.98 3656
17 4369
17.02 5050
17.04 5671
17.06 6513
17.08 7113
17.1 7506
17.12 7922
17.14 7673
17.16 7147
17.18 6383
17.2 5347
17.22 4147
17.24 3180
17.26 2317
17.28 1727
17.3 1457
17.32 1218
17.34 1023
17.36 1007
17.38 890
17.4 842
17.42 820
17.44 775
17.46 740
17.48 772
17.5 745
17.52 742
17.54 674
17.56 723
17.58 664
17.6 704
17.62 672
17.64 688
17.66 666
17.68 649
17.7 652
17.72 634
17.74 634
17.76 611
17.78 646
17.8 668
17.82 648
17.84 691
17.86 607
17.88 662
17.9 656
17.92 628
17.94 724
17.96 670
17.98 617
18 618
18.02 669
18.04 632
18.06 647
18.08 674
18.1 633
18.12 638
18.14 654
18.16 633
18.18 627
18.2 660
18.22 639
18.24 651
18.26 699
18.28 663
18.3 657
18.32 659
18.34 651
18.36 626
18.38 682
18.4 655
18.42 677
18.44 684
18.46 606
18.48 666
18.5 633
18.52 618
18.54 634
18.56 685
18.58 667
18.6 662
18.62 688
18.64 638
18.66 679
18.68 648
18.7 688
18.72 641
18.74 674
18.76 640
18.78 635
18.8 683
18.82 665
18.84 662
18.86 664
18.88 635
18.9 616
18.92 667
18.94 667
18.96 676
18.98 679
19 654
19.02 659
19.04 649
19.06 701
19.08 677
19.1 658
19.12 690
19.14 716
19.16 685
19.18 657
19.2 675
19.22 654
19.24 698
19.26 731
19.28 636
19.3 723
19.32 674
19.34 662
19.36 685
19.38 674
19.4 648
19.42 685
19.44 695
19.46 678
19.48 766
19.5 704
19.52 712
19.54 678
19.56 683
19.58 701
19.6 769
19.62 762
19.64 723
19.66 735
19.68 713
19.7 695
19.72 683
19.74 708
19.76 690
19.78 723
19.8 734
19.82 717
19.84 678
19.86 727
19.88 717
19.9 729
19.92 753
19.94 666
19.96 668
19.98 710
20 677