File: xrd-UiO-67/pxrddata/38-35.ASC
3 2414
3.02 2339
3.04 2173
3.06 2003
3.08 1937
3.1 1934
3.12 1787
3.14 1779
3.16 1768
3.18 1696
3.2 1657
3.22 1704
3.24 1636
3.26 1683
3.28 1667
3.3 1608
3.32 1634
3.34 1613
3.36 1573
3.38 1611
3.4 1600
3.42 1519
3.44 1519
3.46 1537
3.48 1434
3.5 1503
3.52 1510
3.54 1463
3.56 1493
3.58 1479
3.6 1437
3.62 1466
3.64 1451
3.66 1443
3.68 1407
3.7 1416
3.72 1412
3.74 1453
3.76 1433
3.78 1355
3.8 1324
3.82 1400
3.84 1381
3.86 1425
3.88 1389
3.9 1428
3.92 1449
3.94 1441
3.96 1485
3.98 1447
4 1484
4.02 1477
4.04 1455
4.06 1479
4.08 1451
4.1 1408
4.12 1456
4.14 1394
4.16 1331
4.18 1263
4.2 1265
4.22 1201
4.24 1168
4.26 1184
4.28 1260
4.3 1139
4.32 1137
4.34 1151
4.36 1096
4.38 1074
4.4 1095
4.42 1107
4.44 1110
4.46 1124
4.48 1085
4.5 1083
4.52 1103
4.54 1114
4.56 1073
4.58 1036
4.6 1049
4.62 1135
4.64 1119
4.66 1044
4.68 1025
4.7 1096
4.72 1077
4.74 1093
4.76 1094
4.78 1086
4.8 1047
4.82 1073
4.84 1133
4.86 1031
4.88 1114
4.9 1108
4.92 1096
4.94 1202
4.96 1244
4.98 1103
5 1185
5.02 1233
5.04 1266
5.06 1285
5.08 1332
5.1 1440
5.12 1407
5.14 1453
5.16 1509
5.18 1556
5.2 1603
5.22 1729
5.24 1874
5.26 1883
5.28 1987
5.3 2125
5.32 2328
5.34 2494
5.36 2857
5.38 3150
5.4 3437
5.42 3198
5.44 2619
5.46 2263
5.48 2200
5.5 2071
5.52 2080
5.54 2017
5.56 2152
5.58 2227
5.6 2230
5.62 2268
5.64 2412
5.66 2577
5.68 2715
5.7 2899
5.72 3166
5.74 3370
5.76 3235
5.78 2975
5.8 2438
5.82 1937
5.84 1461
5.86 1230
5.88 1114
5.9 1014
5.92 1023
5.94 925
5.96 915
5.98 903
6 908
6.02 883
6.04 863
6.06 839
6.08 818
6.1 832
6.12 820
6.14 796
6.16 784
6.18 782
6.2 824
6.22 799
6.24 804
6.26 735
6.28 793
6.3 806
6.32 802
6.34 793
6.36 790
6.38 782
6.4 805
6.42 800
6.44 778
6.46 801
6.48 767
6.5 835
6.52 772
6.54 790
6.56 762
6.58 778
6.6 803
6.62 838
6.64 857
6.66 818
6.68 922
6.7 906
6.72 885
6.74 930
6.76 825
6.78 852
6.8 830
6.82 857
6.84 798
6.86 741
6.88 718
6.9 722
6.92 729
6.94 699
6.96 722
6.98 702
7 673
7.02 661
7.04 688
7.06 705
7.08 716
7.1 701
7.12 660
7.14 716
7.16 664
7.18 679
7.2 682
7.22 676
7.24 687
7.26 673
7.28 716
7.3 710
7.32 641
7.34 641
7.36 651
7.38 671
7.4 666
7.42 683
7.44 646
7.46 670
7.48 656
7.5 649
7.52 656
7.54 613
7.56 650
7.58 649
7.6 623
7.62 694
7.64 671
7.66 627
7.68 640
7.7 686
7.72 652
7.74 662
7.76 651
7.78 652
7.8 647
7.82 651
7.84 682
7.86 677
7.88 679
7.9 636
7.92 675
7.94 647
7.96 659
7.98 675
8 627
8.02 629
8.04 655
8.06 734
8.08 719
8.1 668
8.12 679
8.14 669
8.16 696
8.18 636
8.2 649
8.22 681
8.24 659
8.26 684
8.28 683
8.3 619
8.32 639
8.34 636
8.36 651
8.38 688
8.4 621
8.42 633
8.44 667
8.46 678
8.48 618
8.5 660
8.52 635
8.54 636
8.56 633
8.58 650
8.6 636
8.62 673
8.64 655
8.66 630
8.68 616
8.7 672
8.72 717
8.74 652
8.76 627
8.78 658
8.8 667
8.82 624
8.84 629
8.86 663
8.88 676
8.9 667
8.92 683
8.94 687
8.96 655
8.98 710
9 691
9.02 730
9.04 687
9.06 737
9.08 755
9.1 787
9.12 778
9.14 854
9.16 857
9.18 923
9.2 972
9.22 1006
9.24 1063
9.26 1214
9.28 1410
9.3 1574
9.32 1613
9.34 1408
9.36 1105
9.38 874
9.4 780
9.42 682
9.44 703
9.46 686
9.48 674
9.5 655
9.52 654
9.54 670
9.56 656
9.58 691
9.6 680
9.62 664
9.64 665
9.66 638
9.68 642
9.7 636
9.72 666
9.74 722
9.76 624
9.78 652
9.8 645
9.82 683
9.84 656
9.86 630
9.88 655
9.9 651
9.92 656
9.94 658
9.96 627
9.98 657
10 719
10.02 695
10.04 740
10.06 774
10.08 714
10.1 748
10.12 774
10.14 814
10.16 801
10.18 790
10.2 755
10.22 707
10.24 713
10.26 630
10.28 601
10.3 635
10.32 594
10.34 612
10.36 638
10.38 659
10.4 643
10.42 630
10.44 609
10.46 629
10.48 596
10.5 636
10.52 643
10.54 658
10.56 702
10.58 706
10.6 727
10.62 718
10.64 735
10.66 727
10.68 807
10.7 843
10.72 863
10.74 921
10.76 951
10.78 969
10.8 958
10.82 852
10.84 825
10.86 913
10.88 878
10.9 957
10.92 964
10.94 1027
10.96 971
10.98 859
11 808
11.02 676
11.04 683
11.06 661
11.08 671
11.1 630
11.12 661
11.14 634
11.16 677
11.18 642
11.2 631
11.22 603
11.24 637
11.26 655
11.28 689
11.3 678
11.32 654
11.34 680
11.36 648
11.38 681
11.4 646
11.42 731
11.44 700
11.46 673
11.48 746
11.5 718
11.52 733
11.54 741
11.56 709
11.58 719
11.6 661
11.62 630
11.64 698
11.66 576
11.68 611
11.7 585
11.72 667
11.74 636
11.76 607
11.78 591
11.8 624
11.82 679
11.84 650
11.86 610
11.88 618
11.9 614
11.92 679
11.94 696
11.96 612
11.98 631
12 635
12.02 634
12.04 590
12.06 636
12.08 644
12.1 655
12.12 681
12.14 706
12.16 665
12.18 672
12.2 645
12.22 700
12.24 692
12.26 700
12.28 681
12.3 671
12.32 664
12.34 652
12.36 622
12.38 616
12.4 668
12.42 661
12.44 583
12.46 607
12.48 637
12.5 615
12.52 628
12.54 660
12.56 654
12.58 628
12.6 638
12.62 638
12.64 668
12.66 578
12.68 603
12.7 624
12.72 612
12.74 642
12.76 653
12.78 607
12.8 662
12.82 618
12.84 654
12.86 646
12.88 608
12.9 628
12.92 656
12.94 716
12.96 654
12.98 660
13 667
13.02 682
13.04 680
13.06 716
13.08 701
13.1 677
13.12 692
13.14 744
13.16 719
13.18 776
13.2 891
13.22 903
13.24 1103
13.26 1142
13.28 989
13.3 837
13.32 726
13.34 703
13.36 657
13.38 702
13.4 642
13.42 700
13.44 685
13.46 706
13.48 648
13.5 645
13.52 683
13.54 669
13.56 645
13.58 619
13.6 628
13.62 649
13.64 652
13.66 633
13.68 703
13.7 637
13.72 709
13.74 692
13.76 677
13.78 692
13.8 686
13.82 663
13.84 680
13.86 680
13.88 686
13.9 656
13.92 665
13.94 670
13.96 666
13.98 702
14 689
14.02 683
14.04 672
14.06 693
14.08 702
14.1 675
14.12 662
14.14 676
14.16 704
14.18 673
14.2 719
14.22 743
14.24 682
14.26 669
14.28 746
14.3 709
14.32 693
14.34 732
14.36 740
14.38 689
14.4 732
14.42 702
14.44 694
14.46 705
14.48 699
14.5 690
14.52 740
14.54 729
14.56 758
14.58 674
14.6 731
14.62 715
14.64 704
14.66 687
14.68 689
14.7 746
14.72 739
14.74 753
14.76 700
14.78 751
14.8 734
14.82 705
14.84 770
14.86 711
14.88 748
14.9 737
14.92 742
14.94 794
14.96 712
14.98 703
15 715
15.02 723
15.04 745
15.06 703
15.08 713
15.1 773
15.12 774
15.14 775
15.16 724
15.18 736
15.2 806
15.22 773
15.24 799
15.26 782
15.28 778
15.3 753
15.32 809
15.34 708
15.36 803
15.38 765
15.4 794
15.42 792
15.44 747
15.46 757
15.48 746
15.5 746
15.52 780
15.54 775
15.56 798
15.58 779
15.6 741
15.62 770
15.64 738
15.66 799
15.68 790
15.7 811
15.72 772
15.74 798
15.76 779
15.78 723
15.8 780
15.82 764
15.84 750
15.86 823
15.88 790
15.9 797
15.92 815
15.94 809
15.96 822
15.98 815
16 796
16.02 766
16.04 785
16.06 775
16.08 808
16.1 792
16.12 843
16.14 839
16.16 849
16.18 836
16.2 839
16.22 843
16.24 842
16.26 852
16.28 882
16.3 837
16.32 832
16.34 848
16.36 882
16.38 895
16.4 858
16.42 878
16.44 832
16.46 846
16.48 906
16.5 867
16.52 836
16.54 879
16.56 890
16.58 944
16.6 888
16.62 861
16.64 936
16.66 941
16.68 952
16.7 966
16.72 957
16.74 994
16.76 1075
16.78 1113
16.8 1235
16.82 1216
16.84 1266
16.86 1171
16.88 1341
16.9 1565
16.92 1795
16.94 2351
16.96 2768
16.98 3118
17 2858
17.02 2451
17.04 1941
17.06 1427
17.08 1139
17.1 1010
17.12 975
17.14 986
17.16 972
17.18 981
17.2 960
17.22 974
17.24 1011
17.26 957
17.28 1027
17.3 955
17.32 1025
17.34 1000
17.36 898
17.38 1005
17.4 989
17.42 958
17.44 947
17.46 1016
17.48 1010
17.5 996
17.52 950
17.54 932
17.56 1003
17.58 978
17.6 1014
17.62 1004
17.64 1002
17.66 1050
17.68 994
17.7 1031
17.72 1011
17.74 1045
17.76 1000
17.78 1027
17.8 1012
17.82 1061
17.84 1081
17.86 1056
17.88 1044
17.9 1057
17.92 1065
17.94 1090
17.96 1068
17.98 1018
18 1085
18.02 1066
18.04 1093
18.06 1082
18.08 1046
18.1 1058
18.12 1083
18.14 1052
18.16 1063
18.18 1007
18.2 1098
18.22 1061
18.24 1025
18.26 1113
18.28 1081
18.3 1083
18.32 1081
18.34 1077
18.36 1068
18.38 1067
18.4 1127
18.42 1066
18.44 1117
18.46 1094
18.48 1135
18.5 1108
18.52 1061
18.54 1164
18.56 1110
18.58 1119
18.6 1106
18.62 1102
18.64 1137
18.66 1106
18.68 1122
18.7 1189
18.72 1125
18.74 1194
18.76 1265
18.78 1169
18.8 1183
18.82 1180
18.84 1208
18.86 1228
18.88 1136
18.9 1218
18.92 1241
18.94 1200
18.96 1229
18.98 1243
19 1231
19.02 1190
19.04 1266
19.06 1266
19.08 1307
19.1 1251
19.12 1259
19.14 1281
19.16 1257
19.18 1231
19.2 1223
19.22 1183
19.24 1209
19.26 1231
19.28 1247
19.3 1315
19.32 1269
19.34 1268
19.36 1280
19.38 1329
19.4 1314
19.42 1381
19.44 1400
19.46 1324
19.48 1481
19.5 1394
19.52 1412
19.54 1336
19.56 1359
19.58 1319
19.6 1263
19.62 1270
19.64 1226
19.66 1274
19.68 1287
19.7 1276
19.72 1277
19.74 1359
19.76 1311
19.78 1333
19.8 1390
19.82 1291
19.84 1319
19.86 1287
19.88 1323
19.9 1268
19.92 1322
19.94 1310
19.96 1305
19.98 1338
20 1284