File: xrd-UiO-67/pxrddata/38-30.ASC
3 2813
3.02 2674
3.04 2570
3.06 2451
3.08 2397
3.1 2259
3.12 2248
3.14 2214
3.16 2206
3.18 2169
3.2 2161
3.22 2115
3.24 2039
3.26 2049
3.28 2066
3.3 2013
3.32 2039
3.34 1987
3.36 1934
3.38 1961
3.4 1937
3.42 1932
3.44 1909
3.46 1929
3.48 1865
3.5 1909
3.52 1856
3.54 1845
3.56 1807
3.58 1858
3.6 1830
3.62 1784
3.64 1762
3.66 1771
3.68 1735
3.7 1676
3.72 1709
3.74 1730
3.76 1733
3.78 1736
3.8 1578
3.82 1684
3.84 1650
3.86 1707
3.88 1582
3.9 1614
3.92 1659
3.94 1657
3.96 1548
3.98 1602
4 1584
4.02 1594
4.04 1525
4.06 1541
4.08 1520
4.1 1592
4.12 1460
4.14 1545
4.16 1494
4.18 1555
4.2 1433
4.22 1540
4.24 1441
4.26 1473
4.28 1426
4.3 1467
4.32 1485
4.34 1477
4.36 1445
4.38 1455
4.4 1428
4.42 1381
4.44 1368
4.46 1432
4.48 1392
4.5 1377
4.52 1365
4.54 1368
4.56 1315
4.58 1317
4.6 1377
4.62 1386
4.64 1309
4.66 1313
4.68 1320
4.7 1330
4.72 1259
4.74 1306
4.76 1293
4.78 1265
4.8 1328
4.82 1255
4.84 1348
4.86 1297
4.88 1251
4.9 1349
4.92 1318
4.94 1282
4.96 1251
4.98 1250
5 1293
5.02 1302
5.04 1333
5.06 1284
5.08 1287
5.1 1344
5.12 1314
5.14 1340
5.16 1342
5.18 1353
5.2 1361
5.22 1380
5.24 1319
5.26 1428
5.28 1448
5.3 1425
5.32 1476
5.34 1514
5.36 1541
5.38 1645
5.4 1765
5.42 1762
5.44 1702
5.46 1560
5.48 1445
5.5 1348
5.52 1308
5.54 1296
5.56 1276
5.58 1271
5.6 1231
5.62 1215
5.64 1204
5.66 1203
5.68 1185
5.7 1096
5.72 1161
5.74 1100
5.76 1145
5.78 1111
5.8 1065
5.82 1012
5.84 1056
5.86 1059
5.88 1081
5.9 981
5.92 949
5.94 1012
5.96 1067
5.98 1026
6 999
6.02 966
6.04 985
6.06 1025
6.08 972
6.1 997
6.12 1000
6.14 985
6.16 984
6.18 931
6.2 912
6.22 961
6.24 922
6.26 955
6.28 962
6.3 966
6.32 936
6.34 973
6.36 974
6.38 910
6.4 919
6.42 944
6.44 942
6.46 969
6.48 909
6.5 919
6.52 904
6.54 884
6.56 922
6.58 908
6.6 844
6.62 873
6.64 859
6.66 858
6.68 888
6.7 816
6.72 909
6.74 902
6.76 885
6.78 883
6.8 845
6.82 856
6.84 836
6.86 848
6.88 814
6.9 920
6.92 832
6.94 803
6.96 760
6.98 862
7 845
7.02 862
7.04 778
7.06 831
7.08 816
7.1 800
7.12 798
7.14 846
7.16 813
7.18 775
7.2 838
7.22 783
7.24 774
7.26 818
7.28 805
7.3 809
7.32 848
7.34 835
7.36 782
7.38 812
7.4 845
7.42 822
7.44 820
7.46 761
7.48 818
7.5 805
7.52 786
7.54 774
7.56 776
7.58 810
7.6 823
7.62 813
7.64 808
7.66 805
7.68 823
7.7 776
7.72 804
7.74 783
7.76 788
7.78 723
7.8 790
7.82 766
7.84 831
7.86 822
7.88 831
7.9 798
7.92 770
7.94 805
7.96 724
7.98 762
8 783
8.02 772
8.04 748
8.06 733
8.08 786
8.1 775
8.12 782
8.14 785
8.16 739
8.18 795
8.2 759
8.22 769
8.24 730
8.26 751
8.28 749
8.3 736
8.32 743
8.34 752
8.36 706
8.38 746
8.4 733
8.42 767
8.44 743
8.46 712
8.48 773
8.5 738
8.52 773
8.54 701
8.56 710
8.58 735
8.6 724
8.62 760
8.64 745
8.66 735
8.68 685
8.7 771
8.72 773
8.74 723
8.76 735
8.78 708
8.8 712
8.82 700
8.84 726
8.86 740
8.88 710
8.9 754
8.92 750
8.94 728
8.96 747
8.98 740
9 779
9.02 815
9.04 759
9.06 751
9.08 741
9.1 751
9.12 732
9.14 771
9.16 746
9.18 770
9.2 783
9.22 753
9.24 739
9.26 746
9.28 867
9.3 823
9.32 842
9.34 894
9.36 871
9.38 814
9.4 735
9.42 730
9.44 773
9.46 718
9.48 708
9.5 699
9.52 709
9.54 711
9.56 733
9.58 719
9.6 675
9.62 692
9.64 727
9.66 696
9.68 732
9.7 761
9.72 694
9.74 708
9.76 695
9.78 694
9.8 706
9.82 693
9.84 714
9.86 687
9.88 705
9.9 631
9.92 688
9.94 692
9.96 700
9.98 738
10 728
10.02 721
10.04 715
10.06 695
10.08 661
10.1 696
10.12 683
10.14 673
10.16 744
10.18 660
10.2 695
10.22 690
10.24 772
10.26 682
10.28 717
10.3 693
10.32 668
10.34 656
10.36 682
10.38 640
10.4 677
10.42 658
10.44 651
10.46 703
10.48 743
10.5 681
10.52 672
10.54 695
10.56 674
10.58 662
10.6 692
10.62 706
10.64 715
10.66 713
10.68 707
10.7 763
10.72 735
10.74 767
10.76 729
10.78 758
10.8 743
10.82 769
10.84 716
10.86 720
10.88 732
10.9 710
10.92 700
10.94 681
10.96 749
10.98 716
11 688
11.02 704
11.04 683
11.06 650
11.08 679
11.1 676
11.12 683
11.14 672
11.16 670
11.18 680
11.2 684
11.22 715
11.24 724
11.26 649
11.28 670
11.3 677
11.32 702
11.34 681
11.36 719
11.38 723
11.4 683
11.42 690
11.44 673
11.46 702
11.48 701
11.5 713
11.52 713
11.54 698
11.56 698
11.58 653
11.6 638
11.62 711
11.64 692
11.66 656
11.68 667
11.7 732
11.72 699
11.74 658
11.76 686
11.78 694
11.8 628
11.82 674
11.84 718
11.86 665
11.88 699
11.9 681
11.92 713
11.94 699
11.96 735
11.98 704
12 736
12.02 696
12.04 687
12.06 694
12.08 707
12.1 696
12.12 719
12.14 697
12.16 728
12.18 656
12.2 690
12.22 731
12.24 701
12.26 744
12.28 679
12.3 713
12.32 712
12.34 727
12.36 713
12.38 692
12.4 698
12.42 690
12.44 749
12.46 697
12.48 689
12.5 718
12.52 713
12.54 717
12.56 684
12.58 699
12.6 716
12.62 719
12.64 736
12.66 751
12.68 767
12.7 701
12.72 748
12.74 716
12.76 724
12.78 720
12.8 669
12.82 660
12.84 706
12.86 675
12.88 678
12.9 665
12.92 721
12.94 742
12.96 676
12.98 695
13 705
13.02 759
13.04 710
13.06 754
13.08 745
13.1 740
13.12 755
13.14 744
13.16 718
13.18 723
13.2 727
13.22 736
13.24 815
13.26 757
13.28 737
13.3 746
13.32 732
13.34 738
13.36 695
13.38 741
13.4 781
13.42 751
13.44 732
13.46 738
13.48 728
13.5 774
13.52 675
13.54 695
13.56 738
13.58 757
13.6 734
13.62 765
13.64 726
13.66 783
13.68 714
13.7 728
13.72 765
13.74 753
13.76 762
13.78 756
13.8 734
13.82 763
13.84 771
13.86 729
13.88 756
13.9 801
13.92 777
13.94 804
13.96 762
13.98 777
14 711
14.02 756
14.04 774
14.06 785
14.08 770
14.1 783
14.12 806
14.14 821
14.16 782
14.18 787
14.2 803
14.22 841
14.24 802
14.26 789
14.28 777
14.3 786
14.32 799
14.34 762
14.36 793
14.38 845
14.4 822
14.42 861
14.44 808
14.46 847
14.48 849
14.5 802
14.52 848
14.54 784
14.56 848
14.58 806
14.6 800
14.62 809
14.64 816
14.66 830
14.68 824
14.7 844
14.72 836
14.74 833
14.76 810
14.78 827
14.8 823
14.82 782
14.84 850
14.86 806
14.88 841
14.9 873
14.92 889
14.94 894
14.96 883
14.98 867
15 825
15.02 833
15.04 817
15.06 819
15.08 843
15.1 882
15.12 866
15.14 873
15.16 870
15.18 851
15.2 911
15.22 911
15.24 911
15.26 879
15.28 858
15.3 866
15.32 878
15.34 921
15.36 846
15.38 911
15.4 952
15.42 903
15.44 887
15.46 932
15.48 966
15.5 870
15.52 913
15.54 927
15.56 920
15.58 955
15.6 902
15.62 924
15.64 906
15.66 1001
15.68 927
15.7 921
15.72 942
15.74 878
15.76 995
15.78 927
15.8 918
15.82 948
15.84 921
15.86 924
15.88 920
15.9 1000
15.92 951
15.94 940
15.96 967
15.98 931
16 970
16.02 929
16.04 940
16.06 993
16.08 1000
16.1 990
16.12 970
16.14 1001
16.16 970
16.18 959
16.2 998
16.22 1004
16.24 957
16.26 931
16.28 1006
16.3 1003
16.32 1035
16.34 1022
16.36 958
16.38 1024
16.4 1061
16.42 1039
16.44 1004
16.46 1059
16.48 1081
16.5 1075
16.52 1022
16.54 1039
16.56 1076
16.58 996
16.6 1096
16.62 1136
16.64 1083
16.66 1090
16.68 1161
16.7 1172
16.72 1201
16.74 1247
16.76 1240
16.78 1299
16.8 1335
16.82 1350
16.84 1406
16.86 1523
16.88 1636
16.9 1824
16.92 2088
16.94 2403
16.96 2695
16.98 2801
17 2987
17.02 2703
17.04 2380
17.06 2001
17.08 1631
17.1 1511
17.12 1313
17.14 1275
17.16 1173
17.18 1192
17.2 1192
17.22 1178
17.24 1159
17.26 1166
17.28 1182
17.3 1125
17.32 1144
17.34 1179
17.36 1182
17.38 1159
17.4 1147
17.42 1218
17.44 1230
17.46 1267
17.48 1176
17.5 1194
17.52 1151
17.54 1162
17.56 1209
17.58 1158
17.6 1210
17.62 1191
17.64 1197
17.66 1181
17.68 1229
17.7 1259
17.72 1196
17.74 1148
17.76 1192
17.78 1203
17.8 1230
17.82 1245
17.84 1306
17.86 1203
17.88 1257
17.9 1195
17.92 1244
17.94 1278
17.96 1284
17.98 1232
18 1284
18.02 1243
18.04 1264
18.06 1307
18.08 1333
18.1 1313
18.12 1337
18.14 1276
18.16 1338
18.18 1290
18.2 1295
18.22 1287
18.24 1304
18.26 1295
18.28 1268
18.3 1313
18.32 1314
18.34 1304
18.36 1368
18.38 1337
18.4 1314
18.42 1338
18.44 1332
18.46 1377
18.48 1354
18.5 1355
18.52 1361
18.54 1410
18.56 1387
18.58 1377
18.6 1316
18.62 1389
18.64 1402
18.66 1351
18.68 1367
18.7 1330
18.72 1383
18.74 1398
18.76 1383
18.78 1442
18.8 1432
18.82 1462
18.84 1434
18.86 1465
18.88 1511
18.9 1412
18.92 1431
18.94 1384
18.96 1434
18.98 1443
19 1460
19.02 1374
19.04 1441
19.06 1423
19.08 1481
19.1 1434
19.12 1458
19.14 1424
19.16 1518
19.18 1506
19.2 1507
19.22 1462
19.24 1512
19.26 1551
19.28 1464
19.3 1592
19.32 1536
19.34 1553
19.36 1512
19.38 1541
19.4 1576
19.42 1590
19.44 1495
19.46 1540
19.48 1563
19.5 1549
19.52 1590
19.54 1523
19.56 1562
19.58 1552
19.6 1576
19.62 1615
19.64 1559
19.66 1576
19.68 1604
19.7 1594
19.72 1545
19.74 1611
19.76 1674
19.78 1601
19.8 1602
19.82 1645
19.84 1466
19.86 1704
19.88 1533
19.9 1591
19.92 1623
19.94 1595
19.96 1595
19.98 1637
20 1635