File: xrd-UiO-67/pxrddata/38-31.ASC
3 2902
3.02 2695
3.04 2587
3.06 2578
3.08 2335
3.1 2341
3.12 2265
3.14 2131
3.16 2197
3.18 2279
3.2 2147
3.22 2085
3.24 2059
3.26 1960
3.28 2075
3.3 2018
3.32 2031
3.34 2010
3.36 1889
3.38 1961
3.4 1947
3.42 1867
3.44 1917
3.46 1902
3.48 1847
3.5 1850
3.52 1838
3.54 1802
3.56 1842
3.58 1813
3.6 1784
3.62 1793
3.64 1831
3.66 1788
3.68 1792
3.7 1794
3.72 1828
3.74 1788
3.76 1767
3.78 1772
3.8 1772
3.82 1742
3.84 1780
3.86 1783
3.88 1763
3.9 1846
3.92 1792
3.94 1811
3.96 1801
3.98 1884
4 1944
4.02 2057
4.04 2025
4.06 2032
4.08 2082
4.1 2035
4.12 2092
4.14 1987
4.16 2004
4.18 1977
4.2 1781
4.22 1740
4.24 1744
4.26 1620
4.28 1642
4.3 1578
4.32 1511
4.34 1447
4.36 1413
4.38 1416
4.4 1340
4.42 1324
4.44 1350
4.46 1311
4.48 1265
4.5 1283
4.52 1271
4.54 1270
4.56 1357
4.58 1233
4.6 1250
4.62 1265
4.64 1337
4.66 1270
4.68 1201
4.7 1249
4.72 1235
4.74 1223
4.76 1286
4.78 1278
4.8 1199
4.82 1258
4.84 1307
4.86 1294
4.88 1317
4.9 1327
4.92 1300
4.94 1316
4.96 1291
4.98 1354
5 1362
5.02 1488
5.04 1451
5.06 1470
5.08 1501
5.1 1555
5.12 1626
5.14 1696
5.16 1782
5.18 1816
5.2 1926
5.22 1983
5.24 2153
5.26 2256
5.28 2335
5.3 2503
5.32 2794
5.34 3012
5.36 3408
5.38 3877
5.4 4463
5.42 4494
5.44 3803
5.46 3115
5.48 2785
5.5 2620
5.52 2475
5.54 2497
5.56 2522
5.58 2486
5.6 2568
5.62 2619
5.64 2692
5.66 2779
5.68 2966
5.7 3105
5.72 3320
5.74 3495
5.76 3465
5.78 3192
5.8 2704
5.82 2176
5.84 1684
5.86 1459
5.88 1276
5.9 1162
5.92 1115
5.94 1079
5.96 1014
5.98 971
6 927
6.02 973
6.04 902
6.06 887
6.08 835
6.1 835
6.12 848
6.14 891
6.16 868
6.18 816
6.2 793
6.22 803
6.24 765
6.26 799
6.28 865
6.3 828
6.32 894
6.34 854
6.36 786
6.38 805
6.4 804
6.42 827
6.44 812
6.46 778
6.48 841
6.5 801
6.52 807
6.54 855
6.56 799
6.58 875
6.6 799
6.62 868
6.64 882
6.66 928
6.68 925
6.7 901
6.72 884
6.74 934
6.76 932
6.78 891
6.8 856
6.82 853
6.84 809
6.86 779
6.88 747
6.9 750
6.92 735
6.94 742
6.96 744
6.98 695
7 710
7.02 689
7.04 692
7.06 711
7.08 710
7.1 720
7.12 684
7.14 643
7.16 676
7.18 758
7.2 718
7.22 688
7.24 694
7.26 667
7.28 691
7.3 695
7.32 701
7.34 703
7.36 650
7.38 644
7.4 657
7.42 690
7.44 683
7.46 662
7.48 649
7.5 690
7.52 638
7.54 667
7.56 634
7.58 626
7.6 660
7.62 667
7.64 648
7.66 687
7.68 630
7.7 659
7.72 687
7.74 636
7.76 651
7.78 653
7.8 637
7.82 634
7.84 686
7.86 644
7.88 671
7.9 680
7.92 669
7.94 711
7.96 675
7.98 679
8 716
8.02 680
8.04 688
8.06 678
8.08 719
8.1 730
8.12 689
8.14 712
8.16 684
8.18 698
8.2 744
8.22 699
8.24 657
8.26 669
8.28 695
8.3 632
8.32 674
8.34 672
8.36 603
8.38 670
8.4 607
8.42 658
8.44 630
8.46 647
8.48 629
8.5 632
8.52 569
8.54 652
8.56 609
8.58 632
8.6 610
8.62 564
8.64 581
8.66 631
8.68 590
8.7 647
8.72 605
8.74 617
8.76 634
8.78 638
8.8 588
8.82 619
8.84 618
8.86 637
8.88 648
8.9 635
8.92 654
8.94 693
8.96 630
8.98 675
9 668
9.02 743
9.04 752
9.06 730
9.08 781
9.1 775
9.12 849
9.14 874
9.16 880
9.18 994
9.2 938
9.22 1106
9.24 1200
9.26 1267
9.28 1467
9.3 1688
9.32 2018
9.34 1928
9.36 1446
9.38 1001
9.4 786
9.42 722
9.44 710
9.46 720
9.48 670
9.5 603
9.52 704
9.54 661
9.56 643
9.58 646
9.6 625
9.62 628
9.64 632
9.66 633
9.68 642
9.7 639
9.72 624
9.74 631
9.76 606
9.78 614
9.8 620
9.82 637
9.84 704
9.86 662
9.88 610
9.9 663
9.92 711
9.94 648
9.96 679
9.98 656
10 631
10.02 669
10.04 670
10.06 682
10.08 742
10.1 728
10.12 762
10.14 746
10.16 746
10.18 731
10.2 772
10.22 773
10.24 670
10.26 667
10.28 669
10.3 591
10.32 620
10.34 595
10.36 599
10.38 573
10.4 593
10.42 646
10.44 636
10.46 603
10.48 646
10.5 610
10.52 629
10.54 691
10.56 671
10.58 678
10.6 687
10.62 709
10.64 769
10.66 757
10.68 822
10.7 831
10.72 864
10.74 977
10.76 1068
10.78 1090
10.8 1029
10.82 932
10.84 956
10.86 919
10.88 896
10.9 1017
10.92 1012
10.94 1087
10.96 1007
10.98 927
11 874
11.02 708
11.04 688
11.06 630
11.08 670
11.1 601
11.12 576
11.14 650
11.16 621
11.18 593
11.2 609
11.22 635
11.24 636
11.26 656
11.28 627
11.3 639
11.32 651
11.34 681
11.36 699
11.38 633
11.4 652
11.42 701
11.44 705
11.46 717
11.48 705
11.5 713
11.52 717
11.54 701
11.56 694
11.58 702
11.6 657
11.62 576
11.64 632
11.66 619
11.68 604
11.7 590
11.72 603
11.74 612
11.76 625
11.78 621
11.8 585
11.82 612
11.84 596
11.86 613
11.88 592
11.9 646
11.92 609
11.94 644
11.96 633
11.98 651
12 582
12.02 599
12.04 680
12.06 661
12.08 651
12.1 724
12.12 736
12.14 716
12.16 774
12.18 761
12.2 772
12.22 780
12.24 818
12.26 773
12.28 754
12.3 741
12.32 716
12.34 714
12.36 656
12.38 686
12.4 656
12.42 644
12.44 725
12.46 637
12.48 624
12.5 626
12.52 648
12.54 641
12.56 640
12.58 614
12.6 652
12.62 612
12.64 655
12.66 588
12.68 627
12.7 617
12.72 657
12.74 610
12.76 621
12.78 556
12.8 644
12.82 607
12.84 630
12.86 607
12.88 630
12.9 658
12.92 617
12.94 598
12.96 637
12.98 619
13 629
13.02 581
13.04 597
13.06 622
13.08 600
13.1 639
13.12 620
13.14 628
13.16 645
13.18 612
13.2 633
13.22 654
13.24 704
13.26 694
13.28 725
13.3 668
13.32 620
13.34 661
13.36 623
13.38 636
13.4 642
13.42 642
13.44 657
13.46 638
13.48 650
13.5 660
13.52 602
13.54 643
13.56 618
13.58 661
13.6 668
13.62 602
13.64 665
13.66 631
13.68 627
13.7 650
13.72 617
13.74 622
13.76 612
13.78 645
13.8 660
13.82 632
13.84 611
13.86 696
13.88 685
13.9 672
13.92 664
13.94 611
13.96 592
13.98 635
14 642
14.02 655
14.04 659
14.06 657
14.08 658
14.1 674
14.12 678
14.14 636
14.16 649
14.18 673
14.2 732
14.22 713
14.24 716
14.26 654
14.28 693
14.3 690
14.32 715
14.34 658
14.36 761
14.38 725
14.4 724
14.42 706
14.44 691
14.46 685
14.48 697
14.5 672
14.52 700
14.54 637
14.56 713
14.58 645
14.6 719
14.62 656
14.64 759
14.66 712
14.68 691
14.7 671
14.72 686
14.74 712
14.76 690
14.78 678
14.8 699
14.82 728
14.84 748
14.86 740
14.88 728
14.9 716
14.92 751
14.94 713
14.96 711
14.98 697
15 685
15.02 665
15.04 713
15.06 721
15.08 672
15.1 682
15.12 685
15.14 722
15.16 673
15.18 775
15.2 735
15.22 708
15.24 725
15.26 671
15.28 714
15.3 720
15.32 761
15.34 756
15.36 725
15.38 737
15.4 703
15.42 728
15.44 755
15.46 769
15.48 727
15.5 652
15.52 722
15.54 748
15.56 741
15.58 758
15.6 772
15.62 701
15.64 733
15.66 691
15.68 739
15.7 751
15.72 733
15.74 713
15.76 775
15.78 761
15.8 771
15.82 757
15.84 720
15.86 760
15.88 736
15.9 771
15.92 769
15.94 739
15.96 693
15.98 779
16 776
16.02 813
16.04 813
16.06 696
16.08 794
16.1 807
16.12 838
16.14 826
16.16 846
16.18 882
16.2 811
16.22 813
16.24 829
16.26 878
16.28 845
16.3 848
16.32 867
16.34 868
16.36 902
16.38 879
16.4 855
16.42 832
16.44 898
16.46 865
16.48 868
16.5 875
16.52 884
16.54 832
16.56 897
16.58 815
16.6 838
16.62 820
16.64 894
16.66 859
16.68 944
16.7 896
16.72 1005
16.74 961
16.76 956
16.78 974
16.8 1009
16.82 1109
16.84 1145
16.86 1167
16.88 1208
16.9 1360
16.92 1482
16.94 1798
16.96 1927
16.98 2249
17 2390
17.02 2128
17.04 1811
17.06 1448
17.08 1305
17.1 1047
17.12 1045
17.14 1012
17.16 966
17.18 968
17.2 960
17.22 974
17.24 1025
17.26 1004
17.28 972
17.3 1017
17.32 986
17.34 971
17.36 973
17.38 974
17.4 937
17.42 953
17.44 897
17.46 925
17.48 930
17.5 908
17.52 965
17.54 953
17.56 913
17.58 956
17.6 900
17.62 959
17.64 935
17.66 979
17.68 1014
17.7 1000
17.72 961
17.74 1029
17.76 958
17.78 942
17.8 1018
17.82 1013
17.84 975
17.86 1022
17.88 1047
17.9 1057
17.92 997
17.94 1001
17.96 962
17.98 1036
18 1006
18.02 1032
18.04 1051
18.06 1074
18.08 985
18.1 1048
18.12 1027
18.14 1019
18.16 1033
18.18 995
18.2 1074
18.22 1048
18.24 1026
18.26 1011
18.28 1039
18.3 1050
18.32 1040
18.34 1064
18.36 1098
18.38 1008
18.4 1039
18.42 1057
18.44 1092
18.46 1075
18.48 995
18.5 1111
18.52 1078
18.54 1070
18.56 1095
18.58 1069
18.6 1096
18.62 1088
18.64 1183
18.66 1229
18.68 1211
18.7 1115
18.72 1174
18.74 1108
18.76 1184
18.78 1186
18.8 1137
18.82 1138
18.84 1170
18.86 1208
18.88 1256
18.9 1203
18.92 1194
18.94 1186
18.96 1176
18.98 1237
19 1288
19.02 1204
19.04 1231
19.06 1260
19.08 1289
19.1 1246
19.12 1235
19.14 1269
19.16 1222
19.18 1261
19.2 1267
19.22 1242
19.24 1213
19.26 1168
19.28 1188
19.3 1145
19.32 1280
19.34 1268
19.36 1309
19.38 1367
19.4 1392
19.42 1368
19.44 1420
19.46 1406
19.48 1385
19.5 1426
19.52 1430
19.54 1472
19.56 1357
19.58 1396
19.6 1283
19.62 1326
19.64 1255
19.66 1210
19.68 1198
19.7 1166
19.72 1256
19.74 1290
19.76 1287
19.78 1279
19.8 1284
19.82 1303
19.84 1315
19.86 1323
19.88 1292
19.9 1264
19.92 1322
19.94 1296
19.96 1246
19.98 1287
20 1252