File: xrd-UiO-67/pxrddata/38-3.ASC
3 2595
3.02 2361
3.04 2251
3.06 2058
3.08 2023
3.1 1885
3.12 1908
3.14 1844
3.16 1789
3.18 1813
3.2 1807
3.22 1651
3.24 1646
3.26 1686
3.28 1543
3.3 1555
3.32 1537
3.34 1539
3.36 1515
3.38 1547
3.4 1550
3.42 1479
3.44 1424
3.46 1406
3.48 1437
3.5 1509
3.52 1421
3.54 1365
3.56 1379
3.58 1336
3.6 1320
3.62 1357
3.64 1323
3.66 1285
3.68 1243
3.7 1229
3.72 1205
3.74 1248
3.76 1248
3.78 1133
3.8 1200
3.82 1178
3.84 1147
3.86 1188
3.88 1133
3.9 1171
3.92 1080
3.94 1102
3.96 1054
3.98 1131
4 1073
4.02 1033
4.04 1048
4.06 1046
4.08 1045
4.1 1009
4.12 985
4.14 973
4.16 988
4.18 975
4.2 954
4.22 941
4.24 959
4.26 925
4.28 996
4.3 965
4.32 926
4.34 903
4.36 912
4.38 908
4.4 893
4.42 896
4.44 851
4.46 899
4.48 820
4.5 859
4.52 886
4.54 818
4.56 876
4.58 856
4.6 851
4.62 832
4.64 867
4.66 784
4.68 795
4.7 794
4.72 768
4.74 833
4.76 805
4.78 766
4.8 823
4.82 834
4.84 781
4.86 790
4.88 733
4.9 767
4.92 745
4.94 702
4.96 757
4.98 788
5 743
5.02 736
5.04 697
5.06 763
5.08 717
5.1 699
5.12 692
5.14 717
5.16 711
5.18 724
5.2 682
5.22 693
5.24 666
5.26 731
5.28 690
5.3 704
5.32 688
5.34 703
5.36 688
5.38 692
5.4 724
5.42 696
5.44 703
5.46 684
5.48 703
5.5 653
5.52 659
5.54 649
5.56 668
5.58 694
5.6 662
5.62 668
5.64 677
5.66 639
5.68 641
5.7 658
5.72 682
5.74 674
5.76 658
5.78 657
5.8 692
5.82 650
5.84 688
5.86 686
5.88 705
5.9 653
5.92 684
5.94 651
5.96 611
5.98 657
6 660
6.02 652
6.04 624
6.06 609
6.08 647
6.1 665
6.12 651
6.14 610
6.16 637
6.18 674
6.2 635
6.22 643
6.24 646
6.26 642
6.28 630
6.3 641
6.32 602
6.34 636
6.36 629
6.38 615
6.4 644
6.42 640
6.44 633
6.46 633
6.48 695
6.5 682
6.52 649
6.54 602
6.56 617
6.58 619
6.6 648
6.62 646
6.64 605
6.66 635
6.68 643
6.7 621
6.72 594
6.74 628
6.76 609
6.78 640
6.8 621
6.82 622
6.84 619
6.86 633
6.88 598
6.9 652
6.92 575
6.94 636
6.96 624
6.98 623
7 669
7.02 657
7.04 615
7.06 598
7.08 639
7.1 629
7.12 634
7.14 609
7.16 635
7.18 590
7.2 627
7.22 641
7.24 603
7.26 621
7.28 618
7.3 649
7.32 645
7.34 626
7.36 615
7.38 607
7.4 569
7.42 591
7.44 576
7.46 606
7.48 610
7.5 622
7.52 634
7.54 598
7.56 599
7.58 603
7.6 623
7.62 635
7.64 632
7.66 569
7.68 603
7.7 597
7.72 639
7.74 605
7.76 600
7.78 651
7.8 640
7.82 594
7.84 660
7.86 630
7.88 615
7.9 616
7.92 602
7.94 612
7.96 590
7.98 616
8 605
8.02 587
8.04 619
8.06 571
8.08 560
8.1 622
8.12 582
8.14 579
8.16 604
8.18 640
8.2 617
8.22 593
8.24 585
8.26 613
8.28 571
8.3 623
8.32 610
8.34 642
8.36 573
8.38 617
8.4 610
8.42 591
8.44 597
8.46 641
8.48 608
8.5 616
8.52 603
8.54 682
8.56 629
8.58 625
8.6 619
8.62 636
8.64 602
8.66 641
8.68 612
8.7 646
8.72 645
8.74 669
8.76 669
8.78 667
8.8 695
8.82 646
8.84 656
8.86 723
8.88 738
8.9 661
8.92 722
8.94 766
8.96 739
8.98 832
9 821
9.02 856
9.04 819
9.06 724
9.08 626
9.1 650
9.12 638
9.14 611
9.16 592
9.18 592
9.2 616
9.22 613
9.24 614
9.26 587
9.28 581
9.3 599
9.32 621
9.34 564
9.36 618
9.38 585
9.4 630
9.42 548
9.44 608
9.46 607
9.48 586
9.5 592
9.52 562
9.54 561
9.56 567
9.58 587
9.6 620
9.62 566
9.64 544
9.66 607
9.68 587
9.7 584
9.72 598
9.74 565
9.76 616
9.78 611
9.8 621
9.82 573
9.84 628
9.86 606
9.88 648
9.9 630
9.92 709
9.94 691
9.96 719
9.98 719
10 629
10.02 645
10.04 590
10.06 581
10.08 587
10.1 554
10.12 590
10.14 563
10.16 534
10.18 530
10.2 596
10.22 531
10.24 544
10.26 563
10.28 531
10.3 540
10.32 565
10.34 571
10.36 579
10.38 590
10.4 562
10.42 544
10.44 569
10.46 593
10.48 596
10.5 561
10.52 574
10.54 549
10.56 545
10.58 580
10.6 558
10.62 553
10.64 528
10.66 547
10.68 541
10.7 569
10.72 580
10.74 560
10.76 575
10.78 564
10.8 542
10.82 519
10.84 534
10.86 573
10.88 593
10.9 542
10.92 545
10.94 588
10.96 552
10.98 587
11 539
11.02 552
11.04 551
11.06 548
11.08 546
11.1 566
11.12 559
11.14 619
11.16 573
11.18 565
11.2 549
11.22 548
11.24 550
11.26 565
11.28 551
11.3 558
11.32 551
11.34 577
11.36 560
11.38 540
11.4 604
11.42 548
11.44 534
11.46 546
11.48 568
11.5 561
11.52 561
11.54 584
11.56 570
11.58 598
11.6 546
11.62 548
11.64 557
11.66 532
11.68 586
11.7 558
11.72 605
11.74 601
11.76 576
11.78 560
11.8 551
11.82 593
11.84 571
11.86 611
11.88 543
11.9 554
11.92 595
11.94 566
11.96 587
11.98 575
12 574
12.02 589
12.04 537
12.06 573
12.08 534
12.1 567
12.12 571
12.14 624
12.16 603
12.18 593
12.2 587
12.22 597
12.24 561
12.26 574
12.28 551
12.3 560
12.32 566
12.34 522
12.36 595
12.38 556
12.4 556
12.42 570
12.44 587
12.46 605
12.48 582
12.5 585
12.52 561
12.54 581
12.56 544
12.58 589
12.6 603
12.62 619
12.64 593
12.66 607
12.68 599
12.7 555
12.72 591
12.74 629
12.76 625
12.78 622
12.8 576
12.82 587
12.84 561
12.86 551
12.88 566
12.9 600
12.92 590
12.94 575
12.96 595
12.98 602
13 599
13.02 584
13.04 607
13.06 555
13.08 612
13.1 613
13.12 627
13.14 604
13.16 649
13.18 595
13.2 605
13.22 612
13.24 666
13.26 636
13.28 605
13.3 643
13.32 627
13.34 643
13.36 721
13.38 666
13.4 675
13.42 675
13.44 692
13.46 619
13.48 682
13.5 652
13.52 603
13.54 639
13.56 612
13.58 605
13.6 593
13.62 614
13.64 666
13.66 660
13.68 633
13.7 654
13.72 654
13.74 627
13.76 629
13.78 593
13.8 623
13.82 619
13.84 616
13.86 591
13.88 601
13.9 637
13.92 618
13.94 574
13.96 655
13.98 654
14 637
14.02 628
14.04 645
14.06 646
14.08 636
14.1 641
14.12 627
14.14 626
14.16 618
14.18 627
14.2 652
14.22 652
14.24 650
14.26 641
14.28 664
14.3 618
14.32 645
14.34 619
14.36 645
14.38 693
14.4 658
14.42 640
14.44 671
14.46 631
14.48 680
14.5 686
14.52 699
14.54 684
14.56 673
14.58 692
14.6 707
14.62 677
14.64 676
14.66 639
14.68 593
14.7 729
14.72 686
14.74 706
14.76 643
14.78 656
14.8 649
14.82 702
14.84 665
14.86 651
14.88 674
14.9 648
14.92 743
14.94 734
14.96 682
14.98 754
15 670
15.02 668
15.04 673
15.06 701
15.08 720
15.1 678
15.12 665
15.14 722
15.16 705
15.18 664
15.2 742
15.22 685
15.24 737
15.26 705
15.28 704
15.3 749
15.32 707
15.34 704
15.36 731
15.38 736
15.4 729
15.42 708
15.44 725
15.46 699
15.48 697
15.5 743
15.52 792
15.54 735
15.56 735
15.58 697
15.6 722
15.62 730
15.64 735
15.66 723
15.68 737
15.7 785
15.72 753
15.74 750
15.76 771
15.78 764
15.8 727
15.82 721
15.84 731
15.86 775
15.88 774
15.9 781
15.92 794
15.94 755
15.96 784
15.98 770
16 787
16.02 753
16.04 754
16.06 796
16.08 764
16.1 826
16.12 744
16.14 797
16.16 821
16.18 852
16.2 759
16.22 811
16.24 794
16.26 794
16.28 780
16.3 829
16.32 774
16.34 807
16.36 765
16.38 800
16.4 812
16.42 796
16.44 853
16.46 835
16.48 864
16.5 898
16.52 789
16.54 837
16.56 819
16.58 886
16.6 846
16.62 840
16.64 827
16.66 848
16.68 805
16.7 870
16.72 888
16.74 914
16.76 920
16.78 885
16.8 950
16.82 986
16.84 907
16.86 926
16.88 1010
16.9 993
16.92 1025
16.94 1039
16.96 1120
16.98 1123
17 1222
17.02 1138
17.04 1103
17.06 1068
17.08 1033
17.1 942
17.12 929
17.14 905
17.16 921
17.18 967
17.2 908
17.22 948
17.24 909
17.26 925
17.28 952
17.3 968
17.32 964
17.34 965
17.36 933
17.38 1009
17.4 936
17.42 926
17.44 943
17.46 982
17.48 953
17.5 981
17.52 1030
17.54 957
17.56 987
17.58 995
17.6 979
17.62 925
17.64 940
17.66 952
17.68 963
17.7 1007
17.72 1025
17.74 1012
17.76 946
17.78 998
17.8 1012
17.82 982
17.84 1044
17.86 1030
17.88 1061
17.9 1058
17.92 1033
17.94 1051
17.96 1013
17.98 1012
18 1028
18.02 1055
18.04 1020
18.06 1042
18.08 959
18.1 1035
18.12 1045
18.14 1108
18.16 1021
18.18 1020
18.2 1081
18.22 1053
18.24 1034
18.26 1108
18.28 1094
18.3 1098
18.32 1090
18.34 1095
18.36 1103
18.38 1076
18.4 1117
18.42 1151
18.44 1108
18.46 1123
18.48 1089
18.5 1086
18.52 1101
18.54 1090
18.56 1195
18.58 1137
18.6 1180
18.62 1132
18.64 1129
18.66 1160
18.68 1158
18.7 1115
18.72 1135
18.74 1151
18.76 1177
18.78 1139
18.8 1183
18.82 1201
18.84 1136
18.86 1194
18.88 1196
18.9 1196
18.92 1119
18.94 1115
18.96 1136
18.98 1162
19 1204
19.02 1210
19.04 1190
19.06 1251
19.08 1185
19.1 1207
19.12 1191
19.14 1240
19.16 1204
19.18 1241
19.2 1181
19.22 1195
19.24 1200
19.26 1299
19.28 1214
19.3 1233
19.32 1235
19.34 1284
19.36 1267
19.38 1308
19.4 1279
19.42 1290
19.44 1172
19.46 1278
19.48 1225
19.5 1310
19.52 1270
19.54 1254
19.56 1270
19.58 1309
19.6 1272
19.62 1268
19.64 1285
19.66 1337
19.68 1278
19.7 1267
19.72 1358
19.74 1326
19.76 1331
19.78 1341
19.8 1314
19.82 1312
19.84 1322
19.86 1347
19.88 1313
19.9 1396
19.92 1390
19.94 1327
19.96 1338
19.98 1318
20 1366