File: xrd-UiO-67/pxrddata/38-39.ASC
3 2516
3.02 2303
3.04 2171
3.06 2059
3.08 1916
3.1 1826
3.12 1750
3.14 1762
3.16 1770
3.18 1679
3.2 1656
3.22 1644
3.24 1554
3.26 1571
3.28 1611
3.3 1658
3.32 1566
3.34 1533
3.36 1555
3.38 1534
3.4 1458
3.42 1486
3.44 1460
3.46 1446
3.48 1376
3.5 1350
3.52 1443
3.54 1356
3.56 1333
3.58 1371
3.6 1378
3.62 1329
3.64 1328
3.66 1370
3.68 1342
3.7 1219
3.72 1353
3.74 1251
3.76 1298
3.78 1216
3.8 1317
3.82 1231
3.84 1200
3.86 1144
3.88 1167
3.9 1253
3.92 1195
3.94 1178
3.96 1218
3.98 1132
4 1141
4.02 1196
4.04 1134
4.06 1154
4.08 1160
4.1 1101
4.12 1108
4.14 1161
4.16 1094
4.18 1056
4.2 1130
4.22 1098
4.24 1067
4.26 1034
4.28 1062
4.3 1026
4.32 958
4.34 984
4.36 985
4.38 952
4.4 976
4.42 1011
4.44 945
4.46 973
4.48 930
4.5 987
4.52 935
4.54 920
4.56 872
4.58 948
4.6 939
4.62 933
4.64 963
4.66 893
4.68 952
4.7 947
4.72 908
4.74 888
4.76 905
4.78 914
4.8 892
4.82 942
4.84 870
4.86 893
4.88 950
4.9 924
4.92 905
4.94 939
4.96 918
4.98 919
5 943
5.02 984
5.04 1034
5.06 1026
5.08 1002
5.1 987
5.12 1030
5.14 1093
5.16 1122
5.18 1114
5.2 1027
5.22 1196
5.24 1184
5.26 1309
5.28 1314
5.3 1320
5.32 1435
5.34 1485
5.36 1603
5.38 1809
5.4 1956
5.42 1980
5.44 1963
5.46 1889
5.48 1853
5.5 1719
5.52 1577
5.54 1618
5.56 1475
5.58 1364
5.6 1340
5.62 1365
5.64 1381
5.66 1405
5.68 1402
5.7 1489
5.72 1505
5.74 1500
5.76 1599
5.78 1491
5.8 1521
5.82 1303
5.84 1261
5.86 1191
5.88 1090
5.9 947
5.92 855
5.94 803
5.96 827
5.98 791
6 766
6.02 789
6.04 765
6.06 776
6.08 745
6.1 736
6.12 764
6.14 739
6.16 717
6.18 681
6.2 737
6.22 712
6.24 688
6.26 643
6.28 667
6.3 695
6.32 686
6.34 705
6.36 704
6.38 689
6.4 703
6.42 688
6.44 714
6.46 717
6.48 675
6.5 714
6.52 693
6.54 665
6.56 706
6.58 741
6.6 634
6.62 731
6.64 681
6.66 688
6.68 729
6.7 745
6.72 744
6.74 734
6.76 725
6.78 713
6.8 708
6.82 722
6.84 709
6.86 671
6.88 634
6.9 713
6.92 669
6.94 626
6.96 678
6.98 656
7 654
7.02 655
7.04 664
7.06 701
7.08 635
7.1 664
7.12 656
7.14 618
7.16 638
7.18 653
7.2 657
7.22 673
7.24 663
7.26 685
7.28 638
7.3 603
7.32 663
7.34 662
7.36 639
7.38 637
7.4 623
7.42 630
7.44 653
7.46 611
7.48 621
7.5 629
7.52 649
7.54 640
7.56 615
7.58 656
7.6 655
7.62 672
7.64 625
7.66 602
7.68 628
7.7 620
7.72 626
7.74 649
7.76 653
7.78 591
7.8 650
7.82 628
7.84 628
7.86 639
7.88 646
7.9 649
7.92 644
7.94 653
7.96 614
7.98 641
8 645
8.02 639
8.04 637
8.06 654
8.08 646
8.1 667
8.12 618
8.14 642
8.16 627
8.18 645
8.2 614
8.22 650
8.24 611
8.26 643
8.28 647
8.3 659
8.32 627
8.34 631
8.36 619
8.38 649
8.4 599
8.42 596
8.44 673
8.46 597
8.48 616
8.5 619
8.52 620
8.54 612
8.56 567
8.58 617
8.6 594
8.62 584
8.64 629
8.66 648
8.68 637
8.7 629
8.72 629
8.74 633
8.76 662
8.78 632
8.8 591
8.82 608
8.84 665
8.86 638
8.88 655
8.9 659
8.92 683
8.94 704
8.96 673
8.98 635
9 679
9.02 647
9.04 639
9.06 653
9.08 726
9.1 722
9.12 690
9.14 716
9.16 726
9.18 722
9.2 750
9.22 788
9.24 820
9.26 812
9.28 920
9.3 963
9.32 1063
9.34 1109
9.36 982
9.38 912
9.4 924
9.42 835
9.44 747
9.46 763
9.48 707
9.5 648
9.52 668
9.54 669
9.56 675
9.58 668
9.6 621
9.62 666
9.64 619
9.66 607
9.68 642
9.7 650
9.72 681
9.74 600
9.76 628
9.78 569
9.8 628
9.82 695
9.84 627
9.86 598
9.88 611
9.9 590
9.92 588
9.94 606
9.96 622
9.98 618
10 578
10.02 627
10.04 679
10.06 676
10.08 678
10.1 707
10.12 691
10.14 662
10.16 696
10.18 668
10.2 667
10.22 736
10.24 691
10.26 671
10.28 615
10.3 641
10.32 679
10.34 713
10.36 643
10.38 604
10.4 592
10.42 652
10.44 609
10.46 614
10.48 622
10.5 620
10.52 626
10.54 676
10.56 689
10.58 653
10.6 673
10.62 706
10.64 682
10.66 702
10.68 720
10.7 715
10.72 699
10.74 748
10.76 794
10.78 809
10.8 883
10.82 799
10.84 779
10.86 753
10.88 770
10.9 772
10.92 765
10.94 732
10.96 746
10.98 765
11 732
11.02 679
11.04 681
11.06 654
11.08 632
11.1 662
11.12 640
11.14 643
11.16 652
11.18 607
11.2 643
11.22 623
11.24 689
11.26 594
11.28 632
11.3 686
11.32 631
11.34 613
11.36 638
11.38 673
11.4 643
11.42 659
11.44 641
11.46 682
11.48 669
11.5 591
11.52 692
11.54 620
11.56 627
11.58 656
11.6 620
11.62 639
11.64 641
11.66 659
11.68 640
11.7 636
11.72 662
11.74 613
11.76 671
11.78 654
11.8 656
11.82 674
11.84 624
11.86 601
11.88 631
11.9 589
11.92 643
11.94 657
11.96 671
11.98 653
12 614
12.02 688
12.04 660
12.06 678
12.08 700
12.1 696
12.12 636
12.14 647
12.16 644
12.18 719
12.2 684
12.22 661
12.24 712
12.26 681
12.28 665
12.3 701
12.32 639
12.34 647
12.36 681
12.38 686
12.4 662
12.42 658
12.44 613
12.46 678
12.48 661
12.5 642
12.52 678
12.54 658
12.56 676
12.58 655
12.6 676
12.62 654
12.64 669
12.66 665
12.68 660
12.7 691
12.72 666
12.74 655
12.76 661
12.78 702
12.8 667
12.82 695
12.84 683
12.86 658
12.88 672
12.9 644
12.92 647
12.94 669
12.96 682
12.98 654
13 666
13.02 681
13.04 706
13.06 729
13.08 703
13.1 664
13.12 662
13.14 671
13.16 712
13.18 749
13.2 707
13.22 684
13.24 652
13.26 712
13.28 713
13.3 746
13.32 700
13.34 682
13.36 694
13.38 715
13.4 645
13.42 700
13.44 733
13.46 754
13.48 714
13.5 706
13.52 682
13.54 753
13.56 718
13.58 721
13.6 677
13.62 713
13.64 704
13.66 701
13.68 703
13.7 748
13.72 699
13.74 741
13.76 740
13.78 711
13.8 701
13.82 746
13.84 783
13.86 752
13.88 712
13.9 698
13.92 691
13.94 720
13.96 746
13.98 733
14 766
14.02 775
14.04 777
14.06 769
14.08 720
14.1 769
14.12 769
14.14 783
14.16 706
14.18 750
14.2 768
14.22 756
14.24 786
14.26 747
14.28 771
14.3 755
14.32 786
14.34 783
14.36 820
14.38 809
14.4 794
14.42 761
14.44 755
14.46 779
14.48 807
14.5 767
14.52 784
14.54 793
14.56 815
14.58 822
14.6 785
14.62 769
14.64 832
14.66 794
14.68 767
14.7 762
14.72 790
14.74 779
14.76 785
14.78 746
14.8 850
14.82 833
14.84 789
14.86 796
14.88 814
14.9 830
14.92 837
14.94 863
14.96 848
14.98 860
15 862
15.02 838
15.04 814
15.06 867
15.08 881
15.1 843
15.12 821
15.14 810
15.16 887
15.18 834
15.2 882
15.22 874
15.24 818
15.26 849
15.28 859
15.3 906
15.32 851
15.34 850
15.36 884
15.38 856
15.4 854
15.42 885
15.44 869
15.46 922
15.48 898
15.5 875
15.52 878
15.54 890
15.56 869
15.58 858
15.6 910
15.62 898
15.64 846
15.66 899
15.68 851
15.7 890
15.72 892
15.74 895
15.76 858
15.78 923
15.8 904
15.82 888
15.84 875
15.86 966
15.88 929
15.9 911
15.92 891
15.94 960
15.96 959
15.98 928
16 976
16.02 967
16.04 945
16.06 963
16.08 981
16.1 972
16.12 928
16.14 925
16.16 939
16.18 942
16.2 962
16.22 950
16.24 952
16.26 971
16.28 1010
16.3 1019
16.32 994
16.34 1007
16.36 967
16.38 1027
16.4 986
16.42 1025
16.44 942
16.46 999
16.48 1037
16.5 1030
16.52 973
16.54 1011
16.56 1026
16.58 1016
16.6 1044
16.62 1053
16.64 1047
16.66 1061
16.68 1053
16.7 1060
16.72 1071
16.74 1114
16.76 1110
16.78 1075
16.8 1141
16.82 1122
16.84 1174
16.86 1151
16.88 1186
16.9 1223
16.92 1274
16.94 1377
16.96 1381
16.98 1405
17 1382
17.02 1365
17.04 1344
17.06 1253
17.08 1184
17.1 1162
17.12 1188
17.14 1139
17.16 1141
17.18 1139
17.2 1153
17.22 1111
17.24 1127
17.26 1127
17.28 1142
17.3 1139
17.32 1201
17.34 1125
17.36 1156
17.38 1218
17.4 1200
17.42 1179
17.44 1161
17.46 1175
17.48 1205
17.5 1149
17.52 1182
17.54 1199
17.56 1177
17.58 1209
17.6 1117
17.62 1216
17.64 1227
17.66 1193
17.68 1195
17.7 1216
17.72 1154
17.74 1282
17.76 1244
17.78 1209
17.8 1261
17.82 1200
17.84 1191
17.86 1225
17.88 1194
17.9 1267
17.92 1233
17.94 1259
17.96 1303
17.98 1308
18 1317
18.02 1262
18.04 1292
18.06 1251
18.08 1319
18.1 1326
18.12 1330
18.14 1303
18.16 1296
18.18 1343
18.2 1234
18.22 1346
18.24 1274
18.26 1344
18.28 1291
18.3 1309
18.32 1331
18.34 1357
18.36 1330
18.38 1320
18.4 1308
18.42 1347
18.44 1354
18.46 1356
18.48 1327
18.5 1373
18.52 1350
18.54 1368
18.56 1350
18.58 1383
18.6 1398
18.62 1366
18.64 1393
18.66 1336
18.68 1379
18.7 1387
18.72 1428
18.74 1446
18.76 1417
18.78 1438
18.8 1472
18.82 1471
18.84 1474
18.86 1348
18.88 1405
18.9 1514
18.92 1454
18.94 1472
18.96 1439
18.98 1532
19 1539
19.02 1492
19.04 1534
19.06 1553
19.08 1512
19.1 1522
19.12 1488
19.14 1496
19.16 1575
19.18 1573
19.2 1536
19.22 1493
19.24 1548
19.26 1542
19.28 1595
19.3 1510
19.32 1552
19.34 1561
19.36 1594
19.38 1629
19.4 1653
19.42 1681
19.44 1691
19.46 1661
19.48 1728
19.5 1586
19.52 1712
19.54 1695
19.56 1646
19.58 1635
19.6 1570
19.62 1602
19.64 1592
19.66 1636
19.68 1603
19.7 1588
19.72 1615
19.74 1621
19.76 1597
19.78 1632
19.8 1588
19.82 1635
19.84 1596
19.86 1683
19.88 1649
19.9 1586
19.92 1672
19.94 1707
19.96 1649
19.98 1694
20 1645