File: xrd-UiO-67/pxrddata/38-32.ASC
3 2566
3.02 2478
3.04 2236
3.06 2229
3.08 2078
3.1 2033
3.12 2048
3.14 1894
3.16 1902
3.18 1903
3.2 1873
3.22 1835
3.24 1865
3.26 1777
3.28 1748
3.3 1739
3.32 1763
3.34 1725
3.36 1763
3.38 1758
3.4 1792
3.42 1686
3.44 1740
3.46 1583
3.48 1549
3.5 1602
3.52 1588
3.54 1571
3.56 1533
3.58 1552
3.6 1493
3.62 1574
3.64 1605
3.66 1483
3.68 1533
3.7 1536
3.72 1467
3.74 1464
3.76 1401
3.78 1400
3.8 1454
3.82 1441
3.84 1320
3.86 1389
3.88 1373
3.9 1438
3.92 1368
3.94 1357
3.96 1263
3.98 1223
4 1254
4.02 1282
4.04 1315
4.06 1296
4.08 1250
4.1 1266
4.12 1312
4.14 1201
4.16 1230
4.18 1215
4.2 1229
4.22 1271
4.24 1232
4.26 1214
4.28 1219
4.3 1173
4.32 1184
4.34 1225
4.36 1145
4.38 1129
4.4 1113
4.42 1155
4.44 1154
4.46 1122
4.48 1116
4.5 1098
4.52 1179
4.54 1161
4.56 1160
4.58 1092
4.6 1100
4.62 1102
4.64 1085
4.66 1120
4.68 1118
4.7 1092
4.72 1126
4.74 1046
4.76 1109
4.78 1150
4.8 1087
4.82 1078
4.84 1108
4.86 1054
4.88 1081
4.9 1052
4.92 1102
4.94 1025
4.96 1120
4.98 1104
5 1099
5.02 1092
5.04 1138
5.06 1116
5.08 1138
5.1 1104
5.12 1096
5.14 1169
5.16 1082
5.18 1203
5.2 1211
5.22 1231
5.24 1219
5.26 1275
5.28 1327
5.3 1343
5.32 1397
5.34 1426
5.36 1474
5.38 1570
5.4 1594
5.42 1762
5.44 1767
5.46 1706
5.48 1606
5.5 1515
5.52 1354
5.54 1280
5.56 1177
5.58 1202
5.6 1081
5.62 1053
5.64 1094
5.66 1043
5.68 1064
5.7 994
5.72 1021
5.74 1030
5.76 1018
5.78 1061
5.8 983
5.82 948
5.84 923
5.86 1011
5.88 944
5.9 1028
5.92 893
5.94 944
5.96 919
5.98 889
6 923
6.02 903
6.04 934
6.06 958
6.08 962
6.1 916
6.12 902
6.14 950
6.16 926
6.18 917
6.2 903
6.22 910
6.24 879
6.26 872
6.28 880
6.3 836
6.32 931
6.34 901
6.36 903
6.38 905
6.4 888
6.42 866
6.44 882
6.46 863
6.48 799
6.5 863
6.52 845
6.54 900
6.56 933
6.58 853
6.6 846
6.62 827
6.64 844
6.66 849
6.68 834
6.7 838
6.72 812
6.74 826
6.76 828
6.78 875
6.8 846
6.82 835
6.84 858
6.86 872
6.88 798
6.9 872
6.92 817
6.94 826
6.96 828
6.98 757
7 806
7.02 813
7.04 889
7.06 787
7.08 823
7.1 856
7.12 829
7.14 836
7.16 870
7.18 820
7.2 840
7.22 821
7.24 837
7.26 794
7.28 763
7.3 841
7.32 835
7.34 773
7.36 871
7.38 782
7.4 833
7.42 838
7.44 764
7.46 852
7.48 828
7.5 834
7.52 840
7.54 828
7.56 866
7.58 759
7.6 784
7.62 787
7.64 743
7.66 811
7.68 787
7.7 821
7.72 829
7.74 808
7.76 883
7.78 778
7.8 801
7.82 843
7.84 821
7.86 773
7.88 835
7.9 771
7.92 851
7.94 784
7.96 809
7.98 798
8 800
8.02 802
8.04 810
8.06 813
8.08 840
8.1 819
8.12 783
8.14 811
8.16 806
8.18 826
8.2 772
8.22 784
8.24 785
8.26 799
8.28 772
8.3 789
8.32 747
8.34 794
8.36 858
8.38 778
8.4 774
8.42 804
8.44 787
8.46 773
8.48 774
8.5 838
8.52 810
8.54 777
8.56 779
8.58 793
8.6 783
8.62 800
8.64 775
8.66 765
8.68 754
8.7 796
8.72 786
8.74 754
8.76 794
8.78 757
8.8 765
8.82 770
8.84 815
8.86 782
8.88 791
8.9 758
8.92 799
8.94 751
8.96 766
8.98 789
9 782
9.02 778
9.04 840
9.06 789
9.08 774
9.1 786
9.12 816
9.14 779
9.16 826
9.18 846
9.2 811
9.22 832
9.24 820
9.26 894
9.28 939
9.3 988
9.32 992
9.34 1010
9.36 1010
9.38 1038
9.4 885
9.42 895
9.44 891
9.46 850
9.48 830
9.5 823
9.52 780
9.54 797
9.56 799
9.58 768
9.6 841
9.62 705
9.64 759
9.66 774
9.68 764
9.7 791
9.72 759
9.74 797
9.76 740
9.78 821
9.8 767
9.82 803
9.84 755
9.86 795
9.88 749
9.9 747
9.92 758
9.94 826
9.96 749
9.98 761
10 775
10.02 771
10.04 723
10.06 785
10.08 769
10.1 806
10.12 768
10.14 751
10.16 773
10.18 812
10.2 796
10.22 731
10.24 769
10.26 741
10.28 784
10.3 792
10.32 765
10.34 734
10.36 776
10.38 736
10.4 728
10.42 799
10.44 818
10.46 778
10.48 760
10.5 774
10.52 822
10.54 805
10.56 823
10.58 789
10.6 794
10.62 773
10.64 800
10.66 801
10.68 823
10.7 810
10.72 898
10.74 879
10.76 819
10.78 897
10.8 822
10.82 936
10.84 872
10.86 842
10.88 801
10.9 818
10.92 828
10.94 797
10.96 767
10.98 828
11 853
11.02 797
11.04 821
11.06 839
11.08 784
11.1 775
11.12 796
11.14 777
11.16 774
11.18 751
11.2 812
11.22 805
11.24 760
11.26 834
11.28 766
11.3 739
11.32 778
11.34 748
11.36 757
11.38 796
11.4 750
11.42 806
11.44 744
11.46 778
11.48 811
11.5 763
11.52 800
11.54 786
11.56 745
11.58 842
11.6 824
11.62 769
11.64 822
11.66 808
11.68 814
11.7 813
11.72 784
11.74 746
11.76 793
11.78 783
11.8 806
11.82 848
11.84 810
11.86 774
11.88 795
11.9 803
11.92 794
11.94 767
11.96 799
11.98 765
12 832
12.02 822
12.04 825
12.06 837
12.08 820
12.1 816
12.12 823
12.14 796
12.16 860
12.18 818
12.2 876
12.22 828
12.24 877
12.26 861
12.28 859
12.3 828
12.32 821
12.34 808
12.36 788
12.38 810
12.4 826
12.42 850
12.44 835
12.46 837
12.48 921
12.5 818
12.52 813
12.54 844
12.56 851
12.58 842
12.6 876
12.62 831
12.64 813
12.66 826
12.68 883
12.7 865
12.72 827
12.74 805
12.76 875
12.78 809
12.8 857
12.82 872
12.84 846
12.86 816
12.88 860
12.9 892
12.92 901
12.94 870
12.96 839
12.98 833
13 858
13.02 870
13.04 867
13.06 801
13.08 885
13.1 897
13.12 900
13.14 922
13.16 913
13.18 901
13.2 873
13.22 842
13.24 913
13.26 852
13.28 922
13.3 904
13.32 850
13.34 897
13.36 900
13.38 892
13.4 891
13.42 929
13.44 947
13.46 913
13.48 897
13.5 839
13.52 863
13.54 871
13.56 919
13.58 920
13.6 883
13.62 923
13.64 912
13.66 912
13.68 948
13.7 948
13.72 936
13.74 912
13.76 961
13.78 916
13.8 897
13.82 923
13.84 943
13.86 944
13.88 967
13.9 993
13.92 929
13.94 901
13.96 920
13.98 956
14 955
14.02 982
14.04 974
14.06 940
14.08 954
14.1 909
14.12 923
14.14 959
14.16 924
14.18 977
14.2 964
14.22 981
14.24 965
14.26 1015
14.28 1002
14.3 974
14.32 1013
14.34 1020
14.36 1005
14.38 940
14.4 936
14.42 955
14.44 1003
14.46 1007
14.48 1009
14.5 1027
14.52 960
14.54 978
14.56 1000
14.58 978
14.6 967
14.62 991
14.64 967
14.66 971
14.68 1026
14.7 976
14.72 1000
14.74 1036
14.76 1016
14.78 974
14.8 1025
14.82 1083
14.84 1015
14.86 1029
14.88 1017
14.9 1029
14.92 979
14.94 1006
14.96 981
14.98 1010
15 1015
15.02 1056
15.04 1087
15.06 1032
15.08 1104
15.1 1079
15.12 1072
15.14 1052
15.16 1057
15.18 1080
15.2 998
15.22 1081
15.24 1101
15.26 1060
15.28 1089
15.3 1074
15.32 1118
15.34 1059
15.36 1092
15.38 1146
15.4 1103
15.42 1057
15.44 1122
15.46 1075
15.48 1050
15.5 1081
15.52 1057
15.54 1082
15.56 1116
15.58 1146
15.6 1193
15.62 1081
15.64 1133
15.66 1161
15.68 1113
15.7 1076
15.72 1102
15.74 1157
15.76 1146
15.78 1086
15.8 1110
15.82 1111
15.84 1140
15.86 1133
15.88 1147
15.9 1097
15.92 1166
15.94 1220
15.96 1164
15.98 1098
16 1128
16.02 1198
16.04 1199
16.06 1159
16.08 1196
16.1 1155
16.12 1137
16.14 1215
16.16 1142
16.18 1222
16.2 1199
16.22 1182
16.24 1241
16.26 1215
16.28 1269
16.3 1216
16.32 1185
16.34 1217
16.36 1209
16.38 1179
16.4 1277
16.42 1245
16.44 1194
16.46 1290
16.48 1309
16.5 1219
16.52 1236
16.54 1262
16.56 1292
16.58 1289
16.6 1348
16.62 1306
16.64 1320
16.66 1241
16.68 1356
16.7 1291
16.72 1386
16.74 1394
16.76 1319
16.78 1440
16.8 1368
16.82 1423
16.84 1482
16.86 1529
16.88 1564
16.9 1621
16.92 1658
16.94 1802
16.96 1882
16.98 2016
17 2155
17.02 2123
17.04 2079
17.06 1980
17.08 1832
17.1 1678
17.12 1598
17.14 1530
17.16 1509
17.18 1435
17.2 1455
17.22 1444
17.24 1460
17.26 1469
17.28 1414
17.3 1416
17.32 1396
17.34 1436
17.36 1467
17.38 1459
17.4 1405
17.42 1459
17.44 1437
17.46 1436
17.48 1413
17.5 1487
17.52 1479
17.54 1452
17.56 1460
17.58 1416
17.6 1506
17.62 1415
17.64 1487
17.66 1461
17.68 1496
17.7 1532
17.72 1513
17.74 1581
17.76 1483
17.78 1453
17.8 1510
17.82 1570
17.84 1554
17.86 1566
17.88 1555
17.9 1557
17.92 1542
17.94 1539
17.96 1574
17.98 1584
18 1564
18.02 1705
18.04 1607
18.06 1598
18.08 1626
18.1 1606
18.12 1625
18.14 1546
18.16 1639
18.18 1651
18.2 1637
18.22 1655
18.24 1683
18.26 1562
18.28 1694
18.3 1714
18.32 1680
18.34 1675
18.36 1631
18.38 1675
18.4 1706
18.42 1729
18.44 1696
18.46 1660
18.48 1656
18.5 1652
18.52 1748
18.54 1685
18.56 1699
18.58 1789
18.6 1717
18.62 1738
18.64 1684
18.66 1767
18.68 1749
18.7 1803
18.72 1806
18.74 1751
18.76 1762
18.78 1839
18.8 1775
18.82 1711
18.84 1851
18.86 1812
18.88 1884
18.9 1882
18.92 1826
18.94 1826
18.96 1771
18.98 1845
19 1856
19.02 1798
19.04 1847
19.06 1869
19.08 1791
19.1 1862
19.12 1868
19.14 1876
19.16 1863
19.18 1862
19.2 1900
19.22 1890
19.24 1856
19.26 1838
19.28 1856
19.3 1895
19.32 1898
19.34 1960
19.36 1946
19.38 1952
19.4 1946
19.42 2009
19.44 1954
19.46 1991
19.48 1961
19.5 2019
19.52 1972
19.54 1983
19.56 1970
19.58 1952
19.6 1940
19.62 1980
19.64 1977
19.66 1986
19.68 2014
19.7 2030
19.72 1971
19.74 2007
19.76 1882
19.78 1967
19.8 2086
19.82 1972
19.84 1976
19.86 2063
19.88 2042
19.9 2048
19.92 2021
19.94 2002
19.96 2068
19.98 2008
20 2015