File: xrd-UiO-67/pxrddata/38-4.ASC
3 3517
3.02 3295
3.04 3034
3.06 3039
3.08 2879
3.1 2787
3.12 2658
3.14 2656
3.16 2678
3.18 2563
3.2 2642
3.22 2462
3.24 2407
3.26 2358
3.28 2376
3.3 2401
3.32 2278
3.34 2230
3.36 2167
3.38 2162
3.4 2120
3.42 1987
3.44 2056
3.46 2010
3.48 2001
3.5 2024
3.52 1976
3.54 1941
3.56 1956
3.58 1863
3.6 1839
3.62 1757
3.64 1745
3.66 1805
3.68 1733
3.7 1673
3.72 1717
3.74 1636
3.76 1624
3.78 1567
3.8 1560
3.82 1477
3.84 1554
3.86 1541
3.88 1499
3.9 1457
3.92 1536
3.94 1431
3.96 1453
3.98 1418
4 1381
4.02 1389
4.04 1314
4.06 1317
4.08 1290
4.1 1273
4.12 1249
4.14 1278
4.16 1202
4.18 1185
4.2 1259
4.22 1230
4.24 1236
4.26 1158
4.28 1128
4.3 1202
4.32 1118
4.34 1146
4.36 1156
4.38 1089
4.4 1095
4.42 1081
4.44 1074
4.46 1056
4.48 1048
4.5 1020
4.52 1100
4.54 1022
4.56 1037
4.58 1012
4.6 970
4.62 1002
4.64 984
4.66 979
4.68 1003
4.7 980
4.72 927
4.74 913
4.76 980
4.78 894
4.8 915
4.82 886
4.84 883
4.86 927
4.88 914
4.9 841
4.92 838
4.94 885
4.96 861
4.98 846
5 832
5.02 856
5.04 828
5.06 853
5.08 822
5.1 841
5.12 809
5.14 810
5.16 831
5.18 802
5.2 796
5.22 823
5.24 738
5.26 804
5.28 847
5.3 763
5.32 760
5.34 789
5.36 785
5.38 762
5.4 757
5.42 800
5.44 696
5.46 748
5.48 772
5.5 770
5.52 713
5.54 713
5.56 684
5.58 726
5.6 762
5.62 694
5.64 757
5.66 759
5.68 733
5.7 716
5.72 727
5.74 686
5.76 711
5.78 708
5.8 651
5.82 697
5.84 708
5.86 648
5.88 671
5.9 699
5.92 633
5.94 703
5.96 711
5.98 671
6 731
6.02 674
6.04 672
6.06 675
6.08 699
6.1 675
6.12 651
6.14 684
6.16 696
6.18 660
6.2 618
6.22 611
6.24 658
6.26 621
6.28 639
6.3 686
6.32 653
6.34 673
6.36 649
6.38 644
6.4 638
6.42 657
6.44 601
6.46 618
6.48 627
6.5 662
6.52 637
6.54 628
6.56 655
6.58 659
6.6 620
6.62 650
6.64 596
6.66 594
6.68 618
6.7 631
6.72 684
6.74 618
6.76 613
6.78 638
6.8 673
6.82 619
6.84 650
6.86 655
6.88 603
6.9 633
6.92 630
6.94 614
6.96 593
6.98 633
7 584
7.02 621
7.04 604
7.06 612
7.08 532
7.1 593
7.12 609
7.14 617
7.16 575
7.18 599
7.2 632
7.22 557
7.24 627
7.26 677
7.28 606
7.3 598
7.32 575
7.34 613
7.36 585
7.38 598
7.4 629
7.42 609
7.44 621
7.46 585
7.48 598
7.5 582
7.52 574
7.54 607
7.56 604
7.58 558
7.6 556
7.62 602
7.64 584
7.66 575
7.68 638
7.7 566
7.72 577
7.74 595
7.76 559
7.78 569
7.8 547
7.82 564
7.84 602
7.86 627
7.88 604
7.9 564
7.92 621
7.94 586
7.96 547
7.98 553
8 558
8.02 567
8.04 545
8.06 594
8.08 573
8.1 570
8.12 625
8.14 648
8.16 562
8.18 560
8.2 574
8.22 595
8.24 581
8.26 549
8.28 625
8.3 600
8.32 601
8.34 607
8.36 614
8.38 564
8.4 558
8.42 636
8.44 620
8.46 636
8.48 623
8.5 625
8.52 596
8.54 666
8.56 682
8.58 696
8.6 703
8.62 742
8.64 738
8.66 748
8.68 814
8.7 794
8.72 898
8.74 901
8.76 916
8.78 1005
8.8 1065
8.82 1089
8.84 1179
8.86 1260
8.88 1412
8.9 1564
8.92 1691
8.94 2016
8.96 2264
8.98 2571
9 2707
9.02 2611
9.04 2253
9.06 1610
9.08 1110
9.1 902
9.12 802
9.14 760
9.16 754
9.18 718
9.2 715
9.22 652
9.24 673
9.26 718
9.28 671
9.3 659
9.32 704
9.34 690
9.36 659
9.38 637
9.4 633
9.42 583
9.44 619
9.46 684
9.48 612
9.5 665
9.52 683
9.54 642
9.56 661
9.58 703
9.6 663
9.62 712
9.64 716
9.66 751
9.68 764
9.7 772
9.72 780
9.74 829
9.76 898
9.78 903
9.8 964
9.82 1034
9.84 1123
9.86 1194
9.88 1318
9.9 1499
9.92 1703
9.94 2149
9.96 2376
9.98 2108
10 1635
10.02 1187
10.04 884
10.06 737
10.08 678
10.1 636
10.12 660
10.14 615
10.16 588
10.18 565
10.2 576
10.22 601
10.24 590
10.26 502
10.28 542
10.3 550
10.32 574
10.34 574
10.36 557
10.38 559
10.4 592
10.42 525
10.44 523
10.46 543
10.48 554
10.5 530
10.52 540
10.54 574
10.56 533
10.58 527
10.6 554
10.62 512
10.64 536
10.66 565
10.68 507
10.7 547
10.72 573
10.74 506
10.76 487
10.78 506
10.8 558
10.82 529
10.84 540
10.86 532
10.88 520
10.9 513
10.92 521
10.94 558
10.96 560
10.98 496
11 499
11.02 534
11.04 505
11.06 514
11.08 542
11.1 514
11.12 526
11.14 516
11.16 495
11.18 517
11.2 476
11.22 552
11.24 491
11.26 492
11.28 518
11.3 495
11.32 518
11.34 522
11.36 515
11.38 531
11.4 546
11.42 522
11.44 507
11.46 503
11.48 529
11.5 506
11.52 504
11.54 543
11.56 541
11.58 556
11.6 518
11.62 511
11.64 506
11.66 491
11.68 472
11.7 550
11.72 510
11.74 501
11.76 483
11.78 483
11.8 483
11.82 531
11.84 537
11.86 492
11.88 477
11.9 547
11.92 514
11.94 527
11.96 529
11.98 518
12 547
12.02 491
12.04 524
12.06 524
12.08 515
12.1 542
12.12 534
12.14 543
12.16 541
12.18 512
12.2 533
12.22 495
12.24 542
12.26 530
12.28 572
12.3 525
12.32 545
12.34 544
12.36 540
12.38 538
12.4 550
12.42 530
12.44 528
12.46 609
12.48 568
12.5 594
12.52 603
12.54 643
12.56 630
12.58 685
12.6 677
12.62 741
12.64 714
12.66 749
12.68 799
12.7 783
12.72 782
12.74 715
12.76 699
12.78 677
12.8 660
12.82 640
12.84 592
12.86 578
12.88 625
12.9 556
12.92 553
12.94 519
12.96 540
12.98 555
13 583
13.02 553
13.04 565
13.06 538
13.08 568
13.1 594
13.12 571
13.14 597
13.16 632
13.18 640
13.2 650
13.22 655
13.24 640
13.26 682
13.28 741
13.3 805
13.32 827
13.34 909
13.36 918
13.38 1028
13.4 1041
13.42 1166
13.44 1063
13.46 956
13.48 853
13.5 672
13.52 665
13.54 609
13.56 583
13.58 636
13.6 589
13.62 521
13.64 560
13.66 563
13.68 552
13.7 537
13.72 540
13.74 536
13.76 567
13.78 580
13.8 574
13.82 532
13.84 523
13.86 547
13.88 562
13.9 547
13.92 540
13.94 541
13.96 538
13.98 553
14 524
14.02 523
14.04 555
14.06 566
14.08 575
14.1 581
14.12 553
14.14 583
14.16 592
14.18 579
14.2 540
14.22 571
14.24 533
14.26 576
14.28 556
14.3 569
14.32 522
14.34 528
14.36 535
14.38 510
14.4 561
14.42 582
14.44 535
14.46 544
14.48 529
14.5 528
14.52 577
14.54 575
14.56 600
14.58 568
14.6 569
14.62 538
14.64 603
14.66 540
14.68 532
14.7 554
14.72 587
14.74 543
14.76 533
14.78 609
14.8 589
14.82 572
14.84 519
14.86 601
14.88 580
14.9 563
14.92 541
14.94 570
14.96 556
14.98 574
15 580
15.02 530
15.04 581
15.06 600
15.08 554
15.1 581
15.12 604
15.14 562
15.16 608
15.18 581
15.2 563
15.22 570
15.24 592
15.26 587
15.28 585
15.3 573
15.32 562
15.34 574
15.36 621
15.38 572
15.4 624
15.42 576
15.44 591
15.46 593
15.48 608
15.5 581
15.52 622
15.54 635
15.56 572
15.58 572
15.6 612
15.62 615
15.64 624
15.66 593
15.68 548
15.7 623
15.72 602
15.74 603
15.76 582
15.78 589
15.8 617
15.82 627
15.84 618
15.86 579
15.88 654
15.9 629
15.92 614
15.94 595
15.96 601
15.98 591
16 620
16.02 593
16.04 635
16.06 632
16.08 671
16.1 613
16.12 627
16.14 613
16.16 657
16.18 623
16.2 653
16.22 621
16.24 655
16.26 638
16.28 637
16.3 642
16.32 635
16.34 657
16.36 649
16.38 646
16.4 645
16.42 636
16.44 615
16.46 659
16.48 624
16.5 684
16.52 653
16.54 660
16.56 692
16.58 636
16.6 655
16.62 649
16.64 661
16.66 689
16.68 725
16.7 680
16.72 695
16.74 736
16.76 704
16.78 728
16.8 701
16.82 743
16.84 751
16.86 755
16.88 789
16.9 808
16.92 916
16.94 930
16.96 1059
16.98 1101
17 1105
17.02 1182
17.04 1146
17.06 995
17.08 928
17.1 787
17.12 765
17.14 729
17.16 711
17.18 724
17.2 773
17.22 724
17.24 731
17.26 701
17.28 668
17.3 700
17.32 762
17.34 669
17.36 687
17.38 741
17.4 729
17.42 719
17.44 745
17.46 704
17.48 728
17.5 705
17.52 757
17.54 718
17.56 751
17.58 759
17.6 732
17.62 742
17.64 757
17.66 785
17.68 718
17.7 761
17.72 820
17.74 694
17.76 804
17.78 804
17.8 817
17.82 795
17.84 793
17.86 801
17.88 777
17.9 834
17.92 803
17.94 782
17.96 828
17.98 823
18 817
18.02 861
18.04 787
18.06 811
18.08 842
18.1 812
18.12 785
18.14 774
18.16 807
18.18 819
18.2 786
18.22 838
18.24 845
18.26 810
18.28 774
18.3 841
18.32 778
18.34 869
18.36 863
18.38 820
18.4 876
18.42 873
18.44 851
18.46 905
18.48 906
18.5 885
18.52 939
18.54 835
18.56 850
18.58 873
18.6 845
18.62 944
18.64 866
18.66 906
18.68 851
18.7 882
18.72 846
18.74 874
18.76 830
18.78 880
18.8 848
18.82 873
18.84 863
18.86 810
18.88 852
18.9 845
18.92 887
18.94 863
18.96 839
18.98 850
19 866
19.02 869
19.04 894
19.06 897
19.08 863
19.1 869
19.12 907
19.14 958
19.16 884
19.18 873
19.2 878
19.22 866
19.24 901
19.26 877
19.28 932
19.3 883
19.32 866
19.34 930
19.36 956
19.38 905
19.4 889
19.42 919
19.44 935
19.46 907
19.48 905
19.5 931
19.52 968
19.54 882
19.56 955
19.58 929
19.6 931
19.62 885
19.64 926
19.66 1008
19.68 997
19.7 928
19.72 984
19.74 1002
19.76 983
19.78 1026
19.8 1035
19.82 1032
19.84 1095
19.86 1136
19.88 1190
19.9 1300
19.92 1330
19.94 1342
19.96 1321
19.98 1265
20 1211