File: xrd-UiO-67/pxrddata/38-40.ASC
3 3069
3.02 2875
3.04 2703
3.06 2469
3.08 2522
3.1 2378
3.12 2375
3.14 2366
3.16 2229
3.18 2224
3.2 2241
3.22 2159
3.24 2129
3.26 2089
3.28 2112
3.3 2068
3.32 1986
3.34 1992
3.36 1971
3.38 1948
3.4 1991
3.42 1988
3.44 1939
3.46 1807
3.48 1879
3.5 1811
3.52 1831
3.54 1756
3.56 1761
3.58 1780
3.6 1764
3.62 1763
3.64 1720
3.66 1689
3.68 1700
3.7 1608
3.72 1702
3.74 1666
3.76 1608
3.78 1562
3.8 1591
3.82 1595
3.84 1604
3.86 1570
3.88 1503
3.9 1489
3.92 1479
3.94 1399
3.96 1460
3.98 1433
4 1436
4.02 1436
4.04 1420
4.06 1404
4.08 1346
4.1 1395
4.12 1396
4.14 1299
4.16 1314
4.18 1335
4.2 1220
4.22 1254
4.24 1228
4.26 1276
4.28 1204
4.3 1262
4.32 1256
4.34 1159
4.36 1191
4.38 1238
4.4 1216
4.42 1180
4.44 1177
4.46 1158
4.48 1200
4.5 1160
4.52 1096
4.54 1140
4.56 1143
4.58 1174
4.6 1179
4.62 1110
4.64 1112
4.66 1117
4.68 1070
4.7 1042
4.72 1057
4.74 1081
4.76 1028
4.78 1061
4.8 1023
4.82 1049
4.84 1093
4.86 1062
4.88 1088
4.9 1023
4.92 991
4.94 1066
4.96 1026
4.98 1050
5 989
5.02 1049
5.04 1020
5.06 986
5.08 988
5.1 1015
5.12 1052
5.14 985
5.16 974
5.18 1056
5.2 1047
5.22 1071
5.24 1124
5.26 1012
5.28 1137
5.3 1149
5.32 1093
5.34 1200
5.36 1158
5.38 1231
5.4 1319
5.42 1396
5.44 1410
5.46 1462
5.48 1510
5.5 1376
5.52 1409
5.54 1268
5.56 1131
5.58 1083
5.6 998
5.62 982
5.64 955
5.66 945
5.68 955
5.7 955
5.72 919
5.74 917
5.76 903
5.78 904
5.8 877
5.82 882
5.84 890
5.86 849
5.88 842
5.9 801
5.92 817
5.94 825
5.96 830
5.98 815
6 809
6.02 808
6.04 848
6.06 826
6.08 756
6.1 822
6.12 788
6.14 755
6.16 767
6.18 765
6.2 747
6.22 788
6.24 827
6.26 754
6.28 774
6.3 748
6.32 743
6.34 745
6.36 704
6.38 774
6.4 781
6.42 700
6.44 754
6.46 756
6.48 768
6.5 712
6.52 751
6.54 701
6.56 749
6.58 729
6.6 710
6.62 694
6.64 662
6.66 656
6.68 754
6.7 751
6.72 743
6.74 719
6.76 698
6.78 704
6.8 679
6.82 673
6.84 712
6.86 703
6.88 713
6.9 728
6.92 709
6.94 711
6.96 654
6.98 715
7 703
7.02 725
7.04 676
7.06 693
7.08 655
7.1 706
7.12 702
7.14 700
7.16 665
7.18 685
7.2 677
7.22 687
7.24 730
7.26 674
7.28 649
7.3 650
7.32 695
7.34 675
7.36 659
7.38 690
7.4 705
7.42 692
7.44 726
7.46 663
7.48 699
7.5 689
7.52 668
7.54 670
7.56 696
7.58 643
7.6 665
7.62 677
7.64 678
7.66 661
7.68 638
7.7 634
7.72 674
7.74 665
7.76 684
7.78 647
7.8 671
7.82 702
7.84 660
7.86 578
7.88 632
7.9 622
7.92 656
7.94 659
7.96 638
7.98 635
8 668
8.02 657
8.04 666
8.06 630
8.08 652
8.1 588
8.12 634
8.14 645
8.16 603
8.18 641
8.2 568
8.22 603
8.24 651
8.26 639
8.28 620
8.3 656
8.32 685
8.34 612
8.36 636
8.38 657
8.4 670
8.42 615
8.44 647
8.46 681
8.48 609
8.5 690
8.52 631
8.54 616
8.56 604
8.58 624
8.6 652
8.62 612
8.64 631
8.66 618
8.68 602
8.7 648
8.72 629
8.74 564
8.76 602
8.78 560
8.8 609
8.82 600
8.84 633
8.86 602
8.88 603
8.9 634
8.92 617
8.94 598
8.96 596
8.98 603
9 616
9.02 625
9.04 604
9.06 612
9.08 622
9.1 613
9.12 612
9.14 619
9.16 648
9.18 604
9.2 640
9.22 602
9.24 638
9.26 663
9.28 688
9.3 698
9.32 727
9.34 750
9.36 743
9.38 780
9.4 748
9.42 720
9.44 758
9.46 701
9.48 684
9.5 654
9.52 609
9.54 629
9.56 589
9.58 612
9.6 627
9.62 627
9.64 551
9.66 613
9.68 618
9.7 612
9.72 600
9.74 556
9.76 562
9.78 619
9.8 617
9.82 583
9.84 589
9.86 585
9.88 631
9.9 544
9.92 593
9.94 547
9.96 556
9.98 574
10 608
10.02 575
10.04 666
10.06 580
10.08 575
10.1 616
10.12 573
10.14 600
10.16 590
10.18 583
10.2 564
10.22 591
10.24 597
10.26 559
10.28 604
10.3 605
10.32 590
10.34 600
10.36 546
10.38 575
10.4 573
10.42 590
10.44 615
10.46 587
10.48 584
10.5 620
10.52 613
10.54 596
10.56 608
10.58 617
10.6 615
10.62 644
10.64 619
10.66 598
10.68 560
10.7 596
10.72 567
10.74 664
10.76 619
10.78 625
10.8 657
10.82 629
10.84 675
10.86 666
10.88 644
10.9 671
10.92 611
10.94 614
10.96 617
10.98 602
11 618
11.02 599
11.04 622
11.06 589
11.08 613
11.1 606
11.12 567
11.14 595
11.16 589
11.18 572
11.2 586
11.22 562
11.24 564
11.26 594
11.28 606
11.3 568
11.32 547
11.34 588
11.36 592
11.38 568
11.4 589
11.42 590
11.44 545
11.46 545
11.48 586
11.5 542
11.52 604
11.54 588
11.56 567
11.58 600
11.6 594
11.62 551
11.64 562
11.66 586
11.68 579
11.7 572
11.72 580
11.74 563
11.76 607
11.78 563
11.8 596
11.82 612
11.84 585
11.86 559
11.88 587
11.9 572
11.92 591
11.94 581
11.96 609
11.98 598
12 580
12.02 596
12.04 550
12.06 619
12.08 566
12.1 610
12.12 583
12.14 603
12.16 587
12.18 617
12.2 637
12.22 624
12.24 555
12.26 599
12.28 580
12.3 582
12.32 621
12.34 579
12.36 607
12.38 597
12.4 612
12.42 660
12.44 619
12.46 589
12.48 615
12.5 610
12.52 626
12.54 621
12.56 599
12.58 632
12.6 540
12.62 629
12.64 585
12.66 567
12.68 610
12.7 608
12.72 590
12.74 609
12.76 621
12.78 586
12.8 615
12.82 578
12.84 619
12.86 586
12.88 578
12.9 610
12.92 620
12.94 659
12.96 662
12.98 618
13 596
13.02 623
13.04 626
13.06 645
13.08 643
13.1 584
13.12 622
13.14 593
13.16 624
13.18 643
13.2 599
13.22 646
13.24 645
13.26 639
13.28 633
13.3 592
13.32 644
13.34 657
13.36 651
13.38 641
13.4 649
13.42 637
13.44 643
13.46 635
13.48 639
13.5 625
13.52 663
13.54 640
13.56 638
13.58 644
13.6 631
13.62 653
13.64 658
13.66 619
13.68 641
13.7 694
13.72 571
13.74 646
13.76 637
13.78 654
13.8 645
13.82 670
13.84 632
13.86 621
13.88 651
13.9 658
13.92 650
13.94 644
13.96 664
13.98 650
14 687
14.02 645
14.04 676
14.06 686
14.08 616
14.1 669
14.12 679
14.14 672
14.16 705
14.18 686
14.2 666
14.22 679
14.24 670
14.26 703
14.28 677
14.3 717
14.32 680
14.34 688
14.36 726
14.38 693
14.4 663
14.42 692
14.44 732
14.46 710
14.48 681
14.5 704
14.52 715
14.54 654
14.56 701
14.58 717
14.6 663
14.62 711
14.64 702
14.66 667
14.68 755
14.7 727
14.72 673
14.74 773
14.76 734
14.78 713
14.8 683
14.82 745
14.84 717
14.86 658
14.88 662
14.9 721
14.92 764
14.94 701
14.96 738
14.98 730
15 760
15.02 714
15.04 704
15.06 741
15.08 740
15.1 701
15.12 672
15.14 749
15.16 750
15.18 750
15.2 732
15.22 749
15.24 760
15.26 728
15.28 766
15.3 751
15.32 771
15.34 754
15.36 746
15.38 764
15.4 748
15.42 758
15.44 806
15.46 780
15.48 823
15.5 775
15.52 762
15.54 747
15.56 754
15.58 754
15.6 746
15.62 841
15.64 772
15.66 806
15.68 778
15.7 815
15.72 820
15.74 741
15.76 765
15.78 757
15.8 814
15.82 781
15.84 774
15.86 805
15.88 780
15.9 789
15.92 840
15.94 814
15.96 824
15.98 851
16 859
16.02 840
16.04 828
16.06 810
16.08 841
16.1 765
16.12 853
16.14 872
16.16 843
16.18 842
16.2 848
16.22 854
16.24 816
16.26 852
16.28 839
16.3 879
16.32 881
16.34 858
16.36 824
16.38 855
16.4 833
16.42 845
16.44 877
16.46 840
16.48 867
16.5 878
16.52 872
16.54 904
16.56 856
16.58 868
16.6 836
16.62 976
16.64 902
16.66 937
16.68 940
16.7 949
16.72 954
16.74 924
16.76 970
16.78 934
16.8 1007
16.82 950
16.84 1026
16.86 1031
16.88 1029
16.9 1144
16.92 1085
16.94 1210
16.96 1278
16.98 1405
17 1477
17.02 1522
17.04 1654
17.06 1545
17.08 1456
17.1 1388
17.12 1252
17.14 1158
17.16 1143
17.18 1060
17.2 1020
17.22 1019
17.24 1011
17.26 1018
17.28 1017
17.3 992
17.32 965
17.34 1029
17.36 1018
17.38 950
17.4 1061
17.42 1003
17.44 1010
17.46 1027
17.48 1019
17.5 1010
17.52 1050
17.54 1011
17.56 1099
17.58 1035
17.6 1068
17.62 1095
17.64 1022
17.66 1024
17.68 1063
17.7 1129
17.72 1032
17.74 1104
17.76 1091
17.78 1078
17.8 1086
17.82 1109
17.84 1058
17.86 1093
17.88 1145
17.9 1123
17.92 1124
17.94 1089
17.96 1051
17.98 1095
18 1096
18.02 1078
18.04 1066
18.06 1117
18.08 1127
18.1 1122
18.12 1120
18.14 1102
18.16 1079
18.18 1128
18.2 1090
18.22 1125
18.24 1098
18.26 1078
18.28 1155
18.3 1125
18.32 1153
18.34 1157
18.36 1184
18.38 1157
18.4 1186
18.42 1237
18.44 1201
18.46 1183
18.48 1232
18.5 1231
18.52 1206
18.54 1197
18.56 1157
18.58 1232
18.6 1208
18.62 1250
18.64 1228
18.66 1262
18.68 1265
18.7 1249
18.72 1226
18.74 1308
18.76 1280
18.78 1250
18.8 1252
18.82 1245
18.84 1212
18.86 1305
18.88 1260
18.9 1200
18.92 1175
18.94 1281
18.96 1251
18.98 1305
19 1320
19.02 1281
19.04 1297
19.06 1334
19.08 1300
19.1 1215
19.12 1293
19.14 1287
19.16 1307
19.18 1320
19.2 1309
19.22 1294
19.24 1308
19.26 1341
19.28 1367
19.3 1310
19.32 1342
19.34 1353
19.36 1373
19.38 1323
19.4 1332
19.42 1376
19.44 1360
19.46 1380
19.48 1326
19.5 1344
19.52 1398
19.54 1408
19.56 1405
19.58 1360
19.6 1377
19.62 1416
19.64 1380
19.66 1405
19.68 1351
19.7 1423
19.72 1340
19.74 1433
19.76 1495
19.78 1414
19.8 1419
19.82 1438
19.84 1391
19.86 1452
19.88 1482
19.9 1410
19.92 1488
19.94 1505
19.96 1458
19.98 1421
20 1478