File: xrd-UiO-67/pxrddata/38-6.ASC
3 3108
3.02 3057
3.04 2812
3.06 2822
3.08 2697
3.1 2575
3.12 2526
3.14 2517
3.16 2496
3.18 2359
3.2 2377
3.22 2370
3.24 2292
3.26 2256
3.28 2244
3.3 2172
3.32 2220
3.34 2111
3.36 2202
3.38 2061
3.4 2058
3.42 2017
3.44 1993
3.46 2010
3.48 2017
3.5 1968
3.52 1961
3.54 1989
3.56 1947
3.58 1967
3.6 1900
3.62 1841
3.64 1961
3.66 1797
3.68 1825
3.7 1770
3.72 1816
3.74 1751
3.76 1783
3.78 1781
3.8 1747
3.82 1763
3.84 1673
3.86 1753
3.88 1630
3.9 1643
3.92 1618
3.94 1603
3.96 1586
3.98 1509
4 1629
4.02 1510
4.04 1510
4.06 1584
4.08 1556
4.1 1555
4.12 1491
4.14 1453
4.16 1493
4.18 1480
4.2 1470
4.22 1447
4.24 1438
4.26 1526
4.28 1446
4.3 1420
4.32 1388
4.34 1357
4.36 1401
4.38 1369
4.4 1415
4.42 1403
4.44 1397
4.46 1347
4.48 1380
4.5 1341
4.52 1331
4.54 1325
4.56 1284
4.58 1350
4.6 1334
4.62 1262
4.64 1290
4.66 1275
4.68 1336
4.7 1268
4.72 1287
4.74 1347
4.76 1352
4.78 1306
4.8 1277
4.82 1360
4.84 1427
4.86 1355
4.88 1386
4.9 1315
4.92 1353
4.94 1403
4.96 1357
4.98 1427
5 1448
5.02 1325
5.04 1428
5.06 1429
5.08 1512
5.1 1515
5.12 1582
5.14 1527
5.16 1598
5.18 1536
5.2 1656
5.22 1760
5.24 1849
5.26 1890
5.28 1920
5.3 2076
5.32 2130
5.34 2182
5.36 2511
5.38 2711
5.4 2963
5.42 3265
5.44 3358
5.46 2892
5.48 2337
5.5 1997
5.52 1817
5.54 1734
5.56 1631
5.58 1603
5.6 1518
5.62 1430
5.64 1367
5.66 1426
5.68 1379
5.7 1319
5.72 1295
5.74 1258
5.76 1271
5.78 1146
5.8 1136
5.82 1127
5.84 1068
5.86 1042
5.88 1052
5.9 999
5.92 1001
5.94 960
5.96 908
5.98 876
6 917
6.02 946
6.04 871
6.06 892
6.08 895
6.1 843
6.12 843
6.14 829
6.16 858
6.18 821
6.2 826
6.22 838
6.24 803
6.26 809
6.28 852
6.3 827
6.32 783
6.34 821
6.36 836
6.38 796
6.4 788
6.42 790
6.44 798
6.46 749
6.48 788
6.5 799
6.52 755
6.54 811
6.56 784
6.58 786
6.6 737
6.62 796
6.64 776
6.66 771
6.68 718
6.7 773
6.72 717
6.74 726
6.76 762
6.78 711
6.8 704
6.82 749
6.84 660
6.86 722
6.88 711
6.9 670
6.92 746
6.94 711
6.96 747
6.98 691
7 704
7.02 682
7.04 629
7.06 707
7.08 731
7.1 679
7.12 677
7.14 670
7.16 658
7.18 707
7.2 697
7.22 678
7.24 723
7.26 626
7.28 651
7.3 625
7.32 678
7.34 655
7.36 624
7.38 666
7.4 654
7.42 657
7.44 645
7.46 665
7.48 617
7.5 663
7.52 646
7.54 671
7.56 663
7.58 673
7.6 654
7.62 633
7.64 627
7.66 626
7.68 679
7.7 667
7.72 623
7.74 637
7.76 694
7.78 683
7.8 648
7.82 640
7.84 672
7.86 661
7.88 617
7.9 648
7.92 623
7.94 644
7.96 676
7.98 633
8 648
8.02 655
8.04 659
8.06 670
8.08 686
8.1 652
8.12 622
8.14 638
8.16 665
8.18 667
8.2 665
8.22 683
8.24 701
8.26 607
8.28 678
8.3 607
8.32 638
8.34 664
8.36 656
8.38 669
8.4 623
8.42 645
8.44 659
8.46 659
8.48 676
8.5 730
8.52 708
8.54 734
8.56 728
8.58 819
8.6 760
8.62 789
8.64 862
8.66 849
8.68 890
8.7 893
8.72 982
8.74 1022
8.76 1082
8.78 1129
8.8 1232
8.82 1289
8.84 1454
8.86 1702
8.88 1867
8.9 2297
8.92 2599
8.94 2981
8.96 3189
8.98 3051
9 2678
9.02 2178
9.04 1758
9.06 1315
9.08 958
9.1 881
9.12 848
9.14 788
9.16 871
9.18 826
9.2 787
9.22 880
9.24 915
9.26 930
9.28 955
9.3 1088
9.32 1125
9.34 1238
9.36 1322
9.38 1118
9.4 1030
9.42 842
9.44 741
9.46 721
9.48 683
9.5 729
9.52 679
9.54 695
9.56 658
9.58 733
9.6 703
9.62 692
9.64 688
9.66 707
9.68 721
9.7 703
9.72 769
9.74 745
9.76 740
9.78 794
9.8 808
9.82 891
9.84 883
9.86 944
9.88 1090
9.9 1187
9.92 1344
9.94 1470
9.96 1572
9.98 1430
10 1043
10.02 792
10.04 669
10.06 624
10.08 618
10.1 590
10.12 593
10.14 577
10.16 576
10.18 591
10.2 606
10.22 584
10.24 550
10.26 609
10.28 575
10.3 567
10.32 579
10.34 577
10.36 600
10.38 565
10.4 582
10.42 593
10.44 579
10.46 561
10.48 565
10.5 582
10.52 556
10.54 601
10.56 626
10.58 609
10.6 604
10.62 599
10.64 653
10.66 636
10.68 644
10.7 689
10.72 730
10.74 757
10.76 831
10.78 823
10.8 847
10.82 857
10.84 785
10.86 754
10.88 675
10.9 682
10.92 695
10.94 655
10.96 655
10.98 636
11 640
11.02 594
11.04 578
11.06 548
11.08 547
11.1 576
11.12 586
11.14 536
11.16 494
11.18 530
11.2 525
11.22 548
11.24 517
11.26 509
11.28 543
11.3 546
11.32 503
11.34 541
11.36 507
11.38 537
11.4 532
11.42 507
11.44 513
11.46 552
11.48 529
11.5 540
11.52 505
11.54 542
11.56 518
11.58 565
11.6 489
11.62 519
11.64 473
11.66 537
11.68 537
11.7 522
11.72 507
11.74 497
11.76 523
11.78 521
11.8 492
11.82 533
11.84 521
11.86 531
11.88 495
11.9 506
11.92 550
11.94 530
11.96 481
11.98 539
12 514
12.02 545
12.04 564
12.06 544
12.08 518
12.1 527
12.12 581
12.14 520
12.16 541
12.18 547
12.2 595
12.22 567
12.24 624
12.26 613
12.28 587
12.3 609
12.32 574
12.34 567
12.36 580
12.38 523
12.4 609
12.42 572
12.44 579
12.46 562
12.48 561
12.5 541
12.52 550
12.54 603
12.56 598
12.58 622
12.6 616
12.62 616
12.64 661
12.66 714
12.68 669
12.7 630
12.72 671
12.74 603
12.76 608
12.78 583
12.8 557
12.82 544
12.84 549
12.86 559
12.88 520
12.9 560
12.92 532
12.94 556
12.96 540
12.98 542
13 525
13.02 537
13.04 517
13.06 510
13.08 477
13.1 516
13.12 537
13.14 560
13.16 554
13.18 607
13.2 570
13.22 603
13.24 597
13.26 609
13.28 645
13.3 647
13.32 670
13.34 699
13.36 802
13.38 844
13.4 945
13.42 879
13.44 832
13.46 771
13.48 696
13.5 663
13.52 575
13.54 560
13.56 571
13.58 548
13.6 568
13.62 527
13.64 507
13.66 533
13.68 532
13.7 505
13.72 495
13.74 581
13.76 571
13.78 498
13.8 517
13.82 492
13.84 514
13.86 544
13.88 570
13.9 499
13.92 517
13.94 535
13.96 517
13.98 500
14 495
14.02 528
14.04 535
14.06 530
14.08 519
14.1 546
14.12 553
14.14 504
14.16 503
14.18 505
14.2 534
14.22 529
14.24 513
14.26 554
14.28 576
14.3 557
14.32 531
14.34 533
14.36 507
14.38 529
14.4 520
14.42 514
14.44 510
14.46 536
14.48 498
14.5 529
14.52 522
14.54 475
14.56 497
14.58 516
14.6 499
14.62 512
14.64 489
14.66 517
14.68 488
14.7 520
14.72 513
14.74 518
14.76 508
14.78 544
14.8 545
14.82 500
14.84 536
14.86 516
14.88 535
14.9 530
14.92 532
14.94 539
14.96 538
14.98 547
15 544
15.02 555
15.04 514
15.06 511
15.08 523
15.1 515
15.12 540
15.14 537
15.16 523
15.18 555
15.2 530
15.22 558
15.24 564
15.26 515
15.28 542
15.3 546
15.32 496
15.34 514
15.36 564
15.38 581
15.4 542
15.42 575
15.44 509
15.46 537
15.48 516
15.5 533
15.52 571
15.54 524
15.56 560
15.58 528
15.6 543
15.62 549
15.64 545
15.66 565
15.68 523
15.7 516
15.72 519
15.74 546
15.76 549
15.78 584
15.8 533
15.82 525
15.84 560
15.86 583
15.88 550
15.9 554
15.92 519
15.94 575
15.96 563
15.98 528
16 546
16.02 578
16.04 546
16.06 544
16.08 571
16.1 569
16.12 602
16.14 597
16.16 578
16.18 532
16.2 557
16.22 608
16.24 579
16.26 620
16.28 536
16.3 590
16.32 582
16.34 593
16.36 614
16.38 575
16.4 589
16.42 582
16.44 559
16.46 631
16.48 604
16.5 594
16.52 569
16.54 579
16.56 529
16.58 668
16.6 595
16.62 578
16.64 575
16.66 617
16.68 583
16.7 633
16.72 658
16.74 583
16.76 668
16.78 679
16.8 635
16.82 618
16.84 633
16.86 596
16.88 661
16.9 658
16.92 742
16.94 743
16.96 791
16.98 829
17 866
17.02 863
17.04 788
17.06 715
17.08 636
17.1 614
17.12 631
17.14 620
17.16 646
17.18 648
17.2 626
17.22 650
17.24 649
17.26 609
17.28 617
17.3 637
17.32 668
17.34 657
17.36 652
17.38 682
17.4 626
17.42 602
17.44 632
17.46 613
17.48 619
17.5 652
17.52 632
17.54 646
17.56 675
17.58 624
17.6 640
17.62 681
17.64 683
17.66 631
17.68 606
17.7 654
17.72 669
17.74 689
17.76 708
17.78 691
17.8 719
17.82 665
17.84 678
17.86 699
17.88 691
17.9 707
17.92 755
17.94 723
17.96 718
17.98 662
18 700
18.02 713
18.04 728
18.06 698
18.08 690
18.1 695
18.12 659
18.14 683
18.16 684
18.18 657
18.2 702
18.22 757
18.24 686
18.26 669
18.28 697
18.3 694
18.32 723
18.34 751
18.36 756
18.38 694
18.4 751
18.42 707
18.44 770
18.46 710
18.48 750
18.5 737
18.52 711
18.54 680
18.56 762
18.58 748
18.6 716
18.62 674
18.64 722
18.66 751
18.68 729
18.7 745
18.72 760
18.74 763
18.76 774
18.78 727
18.8 761
18.82 772
18.84 751
18.86 746
18.88 774
18.9 764
18.92 739
18.94 720
18.96 695
18.98 708
19 698
19.02 713
19.04 728
19.06 770
19.08 754
19.1 777
19.12 757
19.14 750
19.16 771
19.18 773
19.2 770
19.22 770
19.24 796
19.26 776
19.28 729
19.3 764
19.32 776
19.34 790
19.36 787
19.38 839
19.4 848
19.42 869
19.44 863
19.46 867
19.48 855
19.5 937
19.52 867
19.54 869
19.56 875
19.58 849
19.6 859
19.62 862
19.64 870
19.66 849
19.68 845
19.7 796
19.72 827
19.74 790
19.76 838
19.78 843
19.8 825
19.82 939
19.84 880
19.86 964
19.88 967
19.9 1017
19.92 1112
19.94 998
19.96 945
19.98 940
20 894