File: xrd-UiO-67/pxrddata/38-7.ASC
3 2760
3.02 2573
3.04 2494
3.06 2305
3.08 2255
3.1 2118
3.12 2077
3.14 2052
3.16 2013
3.18 1926
3.2 1934
3.22 1891
3.24 1828
3.26 1833
3.28 1819
3.3 1807
3.32 1761
3.34 1731
3.36 1774
3.38 1712
3.4 1689
3.42 1627
3.44 1569
3.46 1620
3.48 1522
3.5 1540
3.52 1583
3.54 1588
3.56 1524
3.58 1543
3.6 1507
3.62 1462
3.64 1474
3.66 1402
3.68 1481
3.7 1391
3.72 1398
3.74 1316
3.76 1306
3.78 1370
3.8 1343
3.82 1307
3.84 1295
3.86 1188
3.88 1250
3.9 1231
3.92 1193
3.94 1243
3.96 1230
3.98 1251
4 1154
4.02 1196
4.04 1209
4.06 1123
4.08 1161
4.1 1164
4.12 1077
4.14 1105
4.16 1083
4.18 1039
4.2 1093
4.22 1082
4.24 1045
4.26 1023
4.28 1053
4.3 1053
4.32 1064
4.34 1007
4.36 983
4.38 999
4.4 958
4.42 968
4.44 990
4.46 979
4.48 1021
4.5 1033
4.52 923
4.54 947
4.56 950
4.58 932
4.6 940
4.62 969
4.64 972
4.66 913
4.68 955
4.7 960
4.72 911
4.74 935
4.76 891
4.78 885
4.8 913
4.82 909
4.84 894
4.86 931
4.88 895
4.9 897
4.92 845
4.94 895
4.96 911
4.98 963
5 885
5.02 906
5.04 965
5.06 976
5.08 974
5.1 977
5.12 963
5.14 991
5.16 994
5.18 1047
5.2 1053
5.22 1075
5.24 1036
5.26 1136
5.28 1147
5.3 1172
5.32 1233
5.34 1287
5.36 1356
5.38 1453
5.4 1514
5.42 1656
5.44 1686
5.46 1668
5.48 1790
5.5 1781
5.52 1747
5.54 1681
5.56 1704
5.58 1651
5.6 1614
5.62 1451
5.64 1344
5.66 1343
5.68 1185
5.7 1134
5.72 1026
5.74 1021
5.76 953
5.78 935
5.8 885
5.82 854
5.84 901
5.86 898
5.88 791
5.9 769
5.92 788
5.94 840
5.96 758
5.98 780
6 792
6.02 776
6.04 721
6.06 710
6.08 721
6.1 770
6.12 723
6.14 710
6.16 694
6.18 677
6.2 698
6.22 682
6.24 692
6.26 633
6.28 613
6.3 694
6.32 664
6.34 676
6.36 643
6.38 657
6.4 663
6.42 649
6.44 628
6.46 630
6.48 689
6.5 627
6.52 615
6.54 634
6.56 676
6.58 648
6.6 640
6.62 629
6.64 641
6.66 607
6.68 626
6.7 639
6.72 638
6.74 618
6.76 597
6.78 604
6.8 605
6.82 577
6.84 566
6.86 653
6.88 625
6.9 637
6.92 610
6.94 607
6.96 600
6.98 610
7 597
7.02 624
7.04 602
7.06 661
7.08 645
7.1 581
7.12 593
7.14 570
7.16 621
7.18 566
7.2 571
7.22 600
7.24 583
7.26 569
7.28 593
7.3 611
7.32 596
7.34 575
7.36 570
7.38 573
7.4 559
7.42 557
7.44 589
7.46 557
7.48 588
7.5 518
7.52 566
7.54 574
7.56 581
7.58 574
7.6 593
7.62 553
7.64 588
7.66 553
7.68 548
7.7 552
7.72 574
7.74 544
7.76 547
7.78 555
7.8 578
7.82 557
7.84 571
7.86 585
7.88 548
7.9 539
7.92 559
7.94 581
7.96 535
7.98 549
8 533
8.02 549
8.04 563
8.06 604
8.08 553
8.1 535
8.12 571
8.14 520
8.16 554
8.18 586
8.2 551
8.22 566
8.24 540
8.26 505
8.28 569
8.3 506
8.32 573
8.34 544
8.36 546
8.38 540
8.4 538
8.42 537
8.44 589
8.46 538
8.48 538
8.5 517
8.52 513
8.54 563
8.56 539
8.58 559
8.6 552
8.62 521
8.64 547
8.66 525
8.68 554
8.7 515
8.72 535
8.74 538
8.76 524
8.78 521
8.8 529
8.82 534
8.84 566
8.86 550
8.88 530
8.9 534
8.92 529
8.94 540
8.96 584
8.98 577
9 570
9.02 575
9.04 563
9.06 558
9.08 542
9.1 583
9.12 568
9.14 564
9.16 572
9.18 574
9.2 618
9.22 621
9.24 621
9.26 614
9.28 700
9.3 680
9.32 685
9.34 736
9.36 760
9.38 770
9.4 722
9.42 751
9.44 737
9.46 695
9.48 729
9.5 667
9.52 637
9.54 647
9.56 632
9.58 609
9.6 594
9.62 557
9.64 556
9.66 576
9.68 576
9.7 538
9.72 535
9.74 510
9.76 487
9.78 480
9.8 514
9.82 509
9.84 515
9.86 526
9.88 538
9.9 550
9.92 502
9.94 526
9.96 521
9.98 522
10 556
10.02 504
10.04 511
10.06 533
10.08 538
10.1 537
10.12 512
10.14 521
10.16 491
10.18 470
10.2 507
10.22 520
10.24 486
10.26 542
10.28 508
10.3 495
10.32 519
10.34 493
10.36 504
10.38 454
10.4 475
10.42 497
10.44 497
10.46 496
10.48 523
10.5 514
10.52 466
10.54 518
10.56 497
10.58 536
10.6 526
10.62 522
10.64 525
10.66 544
10.68 501
10.7 550
10.72 552
10.74 510
10.76 557
10.78 588
10.8 566
10.82 612
10.84 623
10.86 618
10.88 612
10.9 625
10.92 618
10.94 586
10.96 538
10.98 547
11 640
11.02 558
11.04 557
11.06 530
11.08 542
11.1 487
11.12 504
11.14 546
11.16 507
11.18 510
11.2 531
11.22 486
11.24 488
11.26 465
11.28 485
11.3 494
11.32 464
11.34 513
11.36 500
11.38 456
11.4 430
11.42 469
11.44 439
11.46 447
11.48 473
11.5 463
11.52 498
11.54 459
11.56 478
11.58 433
11.6 443
11.62 479
11.64 435
11.66 427
11.68 432
11.7 460
11.72 460
11.74 514
11.76 442
11.78 478
11.8 467
11.82 427
11.84 465
11.86 484
11.88 445
11.9 463
11.92 459
11.94 464
11.96 467
11.98 473
12 464
12.02 515
12.04 462
12.06 471
12.08 482
12.1 483
12.12 471
12.14 501
12.16 458
12.18 518
12.2 477
12.22 480
12.24 507
12.26 504
12.28 510
12.3 522
12.32 514
12.34 477
12.36 500
12.38 464
12.4 500
12.42 466
12.44 514
12.46 479
12.48 489
12.5 489
12.52 457
12.54 460
12.56 492
12.58 455
12.6 475
12.62 463
12.64 492
12.66 524
12.68 491
12.7 465
12.72 448
12.74 490
12.76 486
12.78 481
12.8 505
12.82 523
12.84 493
12.86 464
12.88 474
12.9 465
12.92 493
12.94 482
12.96 532
12.98 470
13 481
13.02 479
13.04 493
13.06 496
13.08 518
13.1 526
13.12 468
13.14 483
13.16 490
13.18 504
13.2 493
13.22 479
13.24 502
13.26 491
13.28 509
13.3 505
13.32 483
13.34 453
13.36 488
13.38 461
13.4 472
13.42 479
13.44 506
13.46 529
13.48 504
13.5 474
13.52 476
13.54 471
13.56 521
13.58 515
13.6 495
13.62 469
13.64 489
13.66 488
13.68 505
13.7 550
13.72 492
13.74 484
13.76 519
13.78 495
13.8 476
13.82 492
13.84 516
13.86 543
13.88 507
13.9 493
13.92 495
13.94 495
13.96 539
13.98 488
14 516
14.02 488
14.04 516
14.06 497
14.08 485
14.1 534
14.12 475
14.14 520
14.16 500
14.18 530
14.2 522
14.22 503
14.24 490
14.26 505
14.28 500
14.3 515
14.32 539
14.34 499
14.36 527
14.38 512
14.4 481
14.42 539
14.44 542
14.46 534
14.48 496
14.5 524
14.52 524
14.54 524
14.56 521
14.58 541
14.6 511
14.62 558
14.64 517
14.66 538
14.68 535
14.7 523
14.72 521
14.74 522
14.76 500
14.78 532
14.8 500
14.82 542
14.84 497
14.86 566
14.88 514
14.9 505
14.92 504
14.94 528
14.96 496
14.98 513
15 531
15.02 558
15.04 515
15.06 529
15.08 552
15.1 510
15.12 535
15.14 474
15.16 526
15.18 560
15.2 541
15.22 553
15.24 537
15.26 603
15.28 578
15.3 522
15.32 551
15.34 543
15.36 519
15.38 544
15.4 522
15.42 511
15.44 545
15.46 566
15.48 572
15.5 592
15.52 547
15.54 566
15.56 538
15.58 506
15.6 558
15.62 515
15.64 545
15.66 534
15.68 545
15.7 582
15.72 558
15.74 588
15.76 551
15.78 559
15.8 604
15.82 548
15.84 566
15.86 550
15.88 576
15.9 585
15.92 591
15.94 580
15.96 588
15.98 588
16 601
16.02 561
16.04 582
16.06 607
16.08 580
16.1 598
16.12 596
16.14 573
16.16 566
16.18 570
16.2 628
16.22 616
16.24 587
16.26 601
16.28 587
16.3 562
16.32 588
16.34 588
16.36 591
16.38 614
16.4 572
16.42 568
16.44 617
16.46 617
16.48 597
16.5 639
16.52 573
16.54 610
16.56 600
16.58 614
16.6 654
16.62 614
16.64 630
16.66 682
16.68 657
16.7 600
16.72 620
16.74 617
16.76 658
16.78 652
16.8 621
16.82 703
16.84 691
16.86 645
16.88 664
16.9 696
16.92 736
16.94 630
16.96 706
16.98 732
17 753
17.02 782
17.04 788
17.06 781
17.08 755
17.1 759
17.12 724
17.14 701
17.16 731
17.18 702
17.2 680
17.22 681
17.24 732
17.26 697
17.28 705
17.3 737
17.32 692
17.34 733
17.36 668
17.38 691
17.4 650
17.42 681
17.44 674
17.46 695
17.48 707
17.5 696
17.52 657
17.54 648
17.56 723
17.58 666
17.6 709
17.62 691
17.64 714
17.66 700
17.68 746
17.7 690
17.72 652
17.74 684
17.76 692
17.78 725
17.8 696
17.82 703
17.84 698
17.86 663
17.88 683
17.9 673
17.92 750
17.94 694
17.96 732
17.98 724
18 711
18.02 709
18.04 752
18.06 733
18.08 747
18.1 677
18.12 755
18.14 755
18.16 744
18.18 781
18.2 750
18.22 756
18.24 722
18.26 760
18.28 775
18.3 790
18.32 755
18.34 726
18.36 793
18.38 752
18.4 769
18.42 747
18.44 753
18.46 761
18.48 798
18.5 804
18.52 758
18.54 762
18.56 807
18.58 761
18.6 817
18.62 819
18.64 798
18.66 836
18.68 786
18.7 809
18.72 787
18.74 870
18.76 831
18.78 799
18.8 809
18.82 859
18.84 856
18.86 817
18.88 860
18.9 842
18.92 834
18.94 778
18.96 798
18.98 800
19 864
19.02 813
19.04 864
19.06 830
19.08 838
19.1 792
19.12 866
19.14 853
19.16 886
19.18 900
19.2 849
19.22 869
19.24 844
19.26 824
19.28 903
19.3 855
19.32 922
19.34 860
19.36 932
19.38 927
19.4 889
19.42 906
19.44 918
19.46 908
19.48 1001
19.5 1008
19.52 1023
19.54 944
19.56 1006
19.58 952
19.6 955
19.62 913
19.64 908
19.66 933
19.68 979
19.7 965
19.72 951
19.74 916
19.76 905
19.78 975
19.8 950
19.82 955
19.84 915
19.86 880
19.88 941
19.9 958
19.92 937
19.94 916
19.96 913
19.98 909
20 964