File: xrd-UiO-67/pxrddata/38-8.ASC
3 3281
3.02 2907
3.04 2876
3.06 2678
3.08 2497
3.1 2506
3.12 2360
3.14 2341
3.16 2206
3.18 2176
3.2 2175
3.22 2169
3.24 2185
3.26 2141
3.28 2040
3.3 2057
3.32 1960
3.34 1972
3.36 1997
3.38 1953
3.4 1842
3.42 1895
3.44 1917
3.46 1822
3.48 1779
3.5 1838
3.52 1682
3.54 1655
3.56 1698
3.58 1571
3.6 1661
3.62 1553
3.64 1580
3.66 1590
3.68 1538
3.7 1589
3.72 1534
3.74 1598
3.76 1523
3.78 1539
3.8 1444
3.82 1518
3.84 1452
3.86 1477
3.88 1492
3.9 1427
3.92 1453
3.94 1418
3.96 1425
3.98 1437
4 1357
4.02 1352
4.04 1295
4.06 1364
4.08 1299
4.1 1213
4.12 1253
4.14 1270
4.16 1222
4.18 1190
4.2 1177
4.22 1110
4.24 1200
4.26 1191
4.28 1181
4.3 1178
4.32 1152
4.34 1130
4.36 1127
4.38 1069
4.4 1115
4.42 1039
4.44 1036
4.46 1048
4.48 1035
4.5 1004
4.52 1010
4.54 968
4.56 1015
4.58 946
4.6 951
4.62 1010
4.64 973
4.66 959
4.68 982
4.7 981
4.72 945
4.74 978
4.76 937
4.78 960
4.8 930
4.82 933
4.84 954
4.86 928
4.88 917
4.9 854
4.92 916
4.94 870
4.96 861
4.98 887
5 876
5.02 830
5.04 900
5.06 848
5.08 809
5.1 848
5.12 800
5.14 833
5.16 814
5.18 856
5.2 838
5.22 813
5.24 822
5.26 782
5.28 759
5.3 811
5.32 836
5.34 874
5.36 836
5.38 840
5.4 796
5.42 772
5.44 801
5.46 770
5.48 800
5.5 762
5.52 793
5.54 811
5.56 789
5.58 743
5.6 761
5.62 817
5.64 725
5.66 767
5.68 784
5.7 765
5.72 722
5.74 745
5.76 726
5.78 750
5.8 762
5.82 718
5.84 754
5.86 731
5.88 748
5.9 731
5.92 736
5.94 793
5.96 762
5.98 737
6 729
6.02 771
6.04 710
6.06 766
6.08 707
6.1 750
6.12 709
6.14 714
6.16 658
6.18 754
6.2 721
6.22 711
6.24 713
6.26 693
6.28 715
6.3 672
6.32 713
6.34 718
6.36 731
6.38 735
6.4 722
6.42 721
6.44 759
6.46 732
6.48 742
6.5 712
6.52 686
6.54 732
6.56 664
6.58 707
6.6 692
6.62 717
6.64 673
6.66 698
6.68 696
6.7 740
6.72 705
6.74 668
6.76 643
6.78 696
6.8 689
6.82 731
6.84 682
6.86 710
6.88 678
6.9 687
6.92 690
6.94 646
6.96 716
6.98 658
7 685
7.02 667
7.04 633
7.06 678
7.08 672
7.1 651
7.12 637
7.14 677
7.16 640
7.18 663
7.2 648
7.22 685
7.24 636
7.26 656
7.28 674
7.3 676
7.32 640
7.34 647
7.36 660
7.38 684
7.4 631
7.42 627
7.44 626
7.46 675
7.48 657
7.5 644
7.52 667
7.54 708
7.56 651
7.58 644
7.6 648
7.62 636
7.64 613
7.66 673
7.68 677
7.7 642
7.72 617
7.74 682
7.76 683
7.78 680
7.8 658
7.82 651
7.84 714
7.86 662
7.88 745
7.9 736
7.92 722
7.94 648
7.96 643
7.98 654
8 671
8.02 675
8.04 681
8.06 669
8.08 643
8.1 627
8.12 639
8.14 643
8.16 625
8.18 599
8.2 633
8.22 680
8.24 628
8.26 640
8.28 667
8.3 675
8.32 706
8.34 630
8.36 681
8.38 633
8.4 653
8.42 649
8.44 690
8.46 663
8.48 650
8.5 589
8.52 666
8.54 635
8.56 637
8.58 655
8.6 640
8.62 604
8.64 660
8.66 621
8.68 662
8.7 666
8.72 604
8.74 623
8.76 637
8.78 650
8.8 634
8.82 661
8.84 667
8.86 615
8.88 689
8.9 672
8.92 689
8.94 720
8.96 692
8.98 683
9 668
9.02 643
9.04 660
9.06 644
9.08 605
9.1 660
9.12 606
9.14 618
9.16 621
9.18 629
9.2 603
9.22 633
9.24 586
9.26 579
9.28 590
9.3 578
9.32 610
9.34 594
9.36 562
9.38 572
9.4 639
9.42 613
9.44 620
9.46 600
9.48 611
9.5 634
9.52 574
9.54 574
9.56 585
9.58 564
9.6 578
9.62 616
9.64 584
9.66 631
9.68 642
9.7 646
9.72 613
9.74 610
9.76 600
9.78 592
9.8 593
9.82 555
9.84 609
9.86 580
9.88 635
9.9 624
9.92 624
9.94 633
9.96 625
9.98 616
10 568
10.02 621
10.04 620
10.06 637
10.08 602
10.1 576
10.12 604
10.14 557
10.16 615
10.18 610
10.2 605
10.22 619
10.24 617
10.26 641
10.28 576
10.3 629
10.32 632
10.34 584
10.36 611
10.38 568
10.4 650
10.42 632
10.44 638
10.46 622
10.48 584
10.5 569
10.52 584
10.54 612
10.56 605
10.58 588
10.6 621
10.62 553
10.64 597
10.66 582
10.68 574
10.7 575
10.72 575
10.74 581
10.76 559
10.78 539
10.8 594
10.82 586
10.84 578
10.86 592
10.88 611
10.9 602
10.92 587
10.94 578
10.96 622
10.98 585
11 579
11.02 557
11.04 620
11.06 583
11.08 569
11.1 592
11.12 556
11.14 584
11.16 572
11.18 586
11.2 585
11.22 571
11.24 573
11.26 617
11.28 578
11.3 578
11.32 598
11.34 608
11.36 614
11.38 563
11.4 596
11.42 629
11.44 563
11.46 575
11.48 594
11.5 604
11.52 579
11.54 598
11.56 587
11.58 591
11.6 607
11.62 596
11.64 542
11.66 570
11.68 578
11.7 541
11.72 587
11.74 625
11.76 603
11.78 607
11.8 612
11.82 616
11.84 554
11.86 618
11.88 643
11.9 564
11.92 627
11.94 614
11.96 580
11.98 583
12 577
12.02 602
12.04 600
12.06 558
12.08 550
12.1 630
12.12 608
12.14 598
12.16 614
12.18 581
12.2 568
12.22 583
12.24 602
12.26 576
12.28 664
12.3 594
12.32 607
12.34 545
12.36 591
12.38 601
12.4 621
12.42 648
12.44 594
12.46 591
12.48 570
12.5 635
12.52 614
12.54 607
12.56 571
12.58 625
12.6 624
12.62 599
12.64 600
12.66 630
12.68 619
12.7 553
12.72 607
12.74 664
12.76 642
12.78 659
12.8 615
12.82 628
12.84 614
12.86 635
12.88 608
12.9 616
12.92 635
12.94 638
12.96 641
12.98 631
13 634
13.02 616
13.04 626
13.06 602
13.08 609
13.1 644
13.12 658
13.14 623
13.16 659
13.18 651
13.2 632
13.22 627
13.24 606
13.26 632
13.28 651
13.3 600
13.32 634
13.34 615
13.36 680
13.38 652
13.4 647
13.42 677
13.44 645
13.46 624
13.48 705
13.5 680
13.52 630
13.54 671
13.56 632
13.58 655
13.6 647
13.62 693
13.64 680
13.66 662
13.68 649
13.7 650
13.72 683
13.74 625
13.76 626
13.78 639
13.8 609
13.82 632
13.84 659
13.86 649
13.88 685
13.9 634
13.92 640
13.94 639
13.96 673
13.98 666
14 687
14.02 636
14.04 719
14.06 605
14.08 648
14.1 670
14.12 702
14.14 623
14.16 678
14.18 698
14.2 663
14.22 731
14.24 681
14.26 634
14.28 650
14.3 659
14.32 679
14.34 653
14.36 693
14.38 717
14.4 695
14.42 707
14.44 694
14.46 668
14.48 697
14.5 641
14.52 701
14.54 690
14.56 694
14.58 727
14.6 683
14.62 683
14.64 720
14.66 712
14.68 666
14.7 741
14.72 677
14.74 705
14.76 707
14.78 720
14.8 764
14.82 728
14.84 693
14.86 731
14.88 766
14.9 712
14.92 676
14.94 705
14.96 734
14.98 743
15 692
15.02 737
15.04 751
15.06 733
15.08 732
15.1 705
15.12 706
15.14 738
15.16 718
15.18 776
15.2 748
15.22 696
15.24 766
15.26 736
15.28 745
15.3 756
15.32 786
15.34 758
15.36 721
15.38 755
15.4 766
15.42 787
15.44 750
15.46 757
15.48 761
15.5 793
15.52 764
15.54 758
15.56 720
15.58 787
15.6 781
15.62 799
15.64 741
15.66 735
15.68 782
15.7 796
15.72 807
15.74 795
15.76 760
15.78 818
15.8 768
15.82 812
15.84 755
15.86 798
15.88 824
15.9 802
15.92 804
15.94 838
15.96 809
15.98 802
16 786
16.02 810
16.04 804
16.06 797
16.08 843
16.1 829
16.12 785
16.14 785
16.16 846
16.18 835
16.2 792
16.22 809
16.24 837
16.26 853
16.28 853
16.3 837
16.32 836
16.34 876
16.36 885
16.38 872
16.4 851
16.42 857
16.44 840
16.46 884
16.48 871
16.5 893
16.52 869
16.54 865
16.56 878
16.58 836
16.6 931
16.62 929
16.64 886
16.66 878
16.68 944
16.7 922
16.72 954
16.74 889
16.76 957
16.78 990
16.8 971
16.82 1023
16.84 982
16.86 1040
16.88 1096
16.9 1076
16.92 1146
16.94 1227
16.96 1318
16.98 1382
17 1395
17.02 1327
17.04 1243
17.06 1065
17.08 1064
17.1 1040
17.12 981
17.14 997
17.16 971
17.18 959
17.2 951
17.22 978
17.24 1003
17.26 963
17.28 1018
17.3 982
17.32 963
17.34 963
17.36 970
17.38 974
17.4 989
17.42 985
17.44 956
17.46 1019
17.48 989
17.5 975
17.52 1026
17.54 1017
17.56 1001
17.58 992
17.6 1023
17.62 1056
17.64 1033
17.66 1033
17.68 992
17.7 1011
17.72 1052
17.74 1049
17.76 1039
17.78 1029
17.8 1047
17.82 1045
17.84 1049
17.86 1003
17.88 1101
17.9 1036
17.92 1037
17.94 1095
17.96 1055
17.98 1053
18 1103
18.02 1107
18.04 1063
18.06 1122
18.08 1148
18.1 1146
18.12 1084
18.14 1117
18.16 1131
18.18 1068
18.2 1040
18.22 1115
18.24 1128
18.26 1092
18.28 1091
18.3 1110
18.32 1143
18.34 1164
18.36 1163
18.38 1153
18.4 1115
18.42 1136
18.44 1108
18.46 1093
18.48 1119
18.5 1133
18.52 1210
18.54 1150
18.56 1227
18.58 1154
18.6 1157
18.62 1194
18.64 1210
18.66 1197
18.68 1125
18.7 1241
18.72 1217
18.74 1231
18.76 1155
18.78 1215
18.8 1197
18.82 1233
18.84 1186
18.86 1229
18.88 1227
18.9 1203
18.92 1244
18.94 1296
18.96 1267
18.98 1236
19 1241
19.02 1221
19.04 1208
19.06 1275
19.08 1254
19.1 1227
19.12 1283
19.14 1232
19.16 1268
19.18 1228
19.2 1329
19.22 1306
19.24 1248
19.26 1286
19.28 1284
19.3 1310
19.32 1287
19.34 1254
19.36 1339
19.38 1318
19.4 1387
19.42 1335
19.44 1349
19.46 1267
19.48 1356
19.5 1341
19.52 1298
19.54 1370
19.56 1379
19.58 1344
19.6 1359
19.62 1347
19.64 1319
19.66 1327
19.68 1322
19.7 1370
19.72 1348
19.74 1410
19.76 1343
19.78 1444
19.8 1366
19.82 1399
19.84 1410
19.86 1416
19.88 1431
19.9 1429
19.92 1389
19.94 1425
19.96 1454
19.98 1404
20 1411