File: xrd-UiO-67/pxrddata/38-9.ASC
3 3243
3.02 3175
3.04 2926
3.06 2840
3.08 2698
3.1 2590
3.12 2474
3.14 2394
3.16 2419
3.18 2372
3.2 2335
3.22 2269
3.24 2232
3.26 2149
3.28 2151
3.3 2140
3.32 2119
3.34 2114
3.36 1996
3.38 2075
3.4 1962
3.42 1948
3.44 1936
3.46 1993
3.48 1909
3.5 1913
3.52 1770
3.54 1808
3.56 1759
3.58 1755
3.6 1800
3.62 1789
3.64 1747
3.66 1654
3.68 1623
3.7 1735
3.72 1647
3.74 1632
3.76 1621
3.78 1527
3.8 1589
3.82 1485
3.84 1501
3.86 1473
3.88 1455
3.9 1438
3.92 1430
3.94 1348
3.96 1404
3.98 1417
4 1387
4.02 1392
4.04 1345
4.06 1340
4.08 1260
4.1 1304
4.12 1312
4.14 1252
4.16 1276
4.18 1281
4.2 1228
4.22 1252
4.24 1204
4.26 1221
4.28 1176
4.3 1176
4.32 1204
4.34 1149
4.36 1175
4.38 1197
4.4 1158
4.42 1157
4.44 1146
4.46 1158
4.48 1142
4.5 1138
4.52 1047
4.54 1049
4.56 1047
4.58 1040
4.6 1067
4.62 1044
4.64 1051
4.66 1004
4.68 1062
4.7 995
4.72 1004
4.74 954
4.76 975
4.78 965
4.8 1055
4.82 941
4.84 903
4.86 929
4.88 920
4.9 954
4.92 988
4.94 959
4.96 959
4.98 893
5 839
5.02 882
5.04 911
5.06 887
5.08 893
5.1 927
5.12 859
5.14 848
5.16 879
5.18 875
5.2 881
5.22 792
5.24 858
5.26 858
5.28 823
5.3 821
5.32 808
5.34 835
5.36 862
5.38 762
5.4 812
5.42 817
5.44 821
5.46 767
5.48 821
5.5 785
5.52 753
5.54 775
5.56 762
5.58 761
5.6 777
5.62 764
5.64 725
5.66 781
5.68 717
5.7 761
5.72 781
5.74 779
5.76 767
5.78 777
5.8 705
5.82 758
5.84 758
5.86 765
5.88 700
5.9 772
5.92 748
5.94 749
5.96 697
5.98 762
6 702
6.02 662
6.04 675
6.06 707
6.08 665
6.1 673
6.12 722
6.14 685
6.16 732
6.18 638
6.2 670
6.22 684
6.24 632
6.26 681
6.28 690
6.3 699
6.32 708
6.34 675
6.36 650
6.38 674
6.4 688
6.42 683
6.44 657
6.46 643
6.48 685
6.5 729
6.52 649
6.54 679
6.56 615
6.58 655
6.6 645
6.62 641
6.64 691
6.66 675
6.68 661
6.7 668
6.72 694
6.74 672
6.76 632
6.78 625
6.8 632
6.82 616
6.84 627
6.86 684
6.88 674
6.9 618
6.92 604
6.94 629
6.96 631
6.98 653
7 634
7.02 556
7.04 638
7.06 618
7.08 599
7.1 622
7.12 608
7.14 643
7.16 630
7.18 639
7.2 606
7.22 606
7.24 581
7.26 641
7.28 623
7.3 651
7.32 612
7.34 644
7.36 611
7.38 609
7.4 589
7.42 608
7.44 633
7.46 608
7.48 623
7.5 598
7.52 596
7.54 560
7.56 557
7.58 593
7.6 628
7.62 597
7.64 612
7.66 573
7.68 536
7.7 597
7.72 609
7.74 599
7.76 606
7.78 583
7.8 549
7.82 588
7.84 612
7.86 622
7.88 547
7.9 573
7.92 571
7.94 591
7.96 606
7.98 583
8 559
8.02 554
8.04 543
8.06 519
8.08 554
8.1 627
8.12 574
8.14 588
8.16 590
8.18 587
8.2 538
8.22 574
8.24 535
8.26 552
8.28 611
8.3 574
8.32 574
8.34 564
8.36 560
8.38 600
8.4 591
8.42 576
8.44 605
8.46 594
8.48 643
8.5 604
8.52 611
8.54 634
8.56 652
8.58 676
8.6 703
8.62 728
8.64 728
8.66 695
8.68 769
8.7 787
8.72 858
8.74 922
8.76 847
8.78 947
8.8 1016
8.82 1164
8.84 1226
8.86 1330
8.88 1451
8.9 1662
8.92 1979
8.94 2451
8.96 2982
8.98 3788
9 4134
9.02 3459
9.04 2125
9.06 1298
9.08 916
9.1 777
9.12 714
9.14 661
9.16 628
9.18 617
9.2 613
9.22 624
9.24 593
9.26 560
9.28 586
9.3 590
9.32 578
9.34 590
9.36 578
9.38 552
9.4 605
9.42 566
9.44 554
9.46 549
9.48 565
9.5 531
9.52 571
9.54 606
9.56 584
9.58 585
9.6 620
9.62 615
9.64 641
9.66 615
9.68 666
9.7 669
9.72 722
9.74 724
9.76 726
9.78 740
9.8 762
9.82 834
9.84 841
9.86 948
9.88 1061
9.9 1231
9.92 1404
9.94 1521
9.96 1417
9.98 1061
10 733
10.02 552
10.04 536
10.06 497
10.08 529
10.1 585
10.12 552
10.14 516
10.16 523
10.18 513
10.2 512
10.22 512
10.24 487
10.26 485
10.28 537
10.3 509
10.32 512
10.34 488
10.36 538
10.38 454
10.4 480
10.42 501
10.44 459
10.46 489
10.48 472
10.5 494
10.52 482
10.54 468
10.56 492
10.58 453
10.6 482
10.62 476
10.64 478
10.66 490
10.68 458
10.7 539
10.72 514
10.74 475
10.76 512
10.78 516
10.8 500
10.82 478
10.84 493
10.86 486
10.88 519
10.9 449
10.92 475
10.94 485
10.96 499
10.98 489
11 442
11.02 455
11.04 482
11.06 482
11.08 478
11.1 467
11.12 458
11.14 477
11.16 502
11.18 450
11.2 517
11.22 492
11.24 500
11.26 438
11.28 447
11.3 469
11.32 448
11.34 440
11.36 487
11.38 473
11.4 472
11.42 440
11.44 478
11.46 463
11.48 463
11.5 490
11.52 452
11.54 465
11.56 490
11.58 491
11.6 457
11.62 463
11.64 434
11.66 481
11.68 460
11.7 427
11.72 441
11.74 455
11.76 452
11.78 467
11.8 482
11.82 478
11.84 475
11.86 425
11.88 429
11.9 470
11.92 497
11.94 496
11.96 446
11.98 508
12 451
12.02 440
12.04 453
12.06 515
12.08 465
12.1 472
12.12 452
12.14 482
12.16 494
12.18 524
12.2 457
12.22 453
12.24 474
12.26 442
12.28 502
12.3 453
12.32 462
12.34 499
12.36 491
12.38 470
12.4 478
12.42 503
12.44 520
12.46 559
12.48 509
12.5 504
12.52 545
12.54 522
12.56 554
12.58 602
12.6 591
12.62 584
12.64 589
12.66 599
12.68 705
12.7 687
12.72 659
12.74 627
12.76 593
12.78 530
12.8 509
12.82 514
12.84 479
12.86 514
12.88 476
12.9 502
12.92 521
12.94 482
12.96 490
12.98 457
13 454
13.02 471
13.04 502
13.06 488
13.08 492
13.1 493
13.12 536
13.14 506
13.16 520
13.18 520
13.2 527
13.22 562
13.24 585
13.26 580
13.28 604
13.3 593
13.32 670
13.34 684
13.36 824
13.38 822
13.4 845
13.42 810
13.44 699
13.46 646
13.48 605
13.5 575
13.52 505
13.54 508
13.56 487
13.58 486
13.6 484
13.62 465
13.64 487
13.66 484
13.68 475
13.7 485
13.72 513
13.74 462
13.76 499
13.78 465
13.8 497
13.82 491
13.84 482
13.86 483
13.88 487
13.9 479
13.92 442
13.94 455
13.96 500
13.98 496
14 490
14.02 469
14.04 472
14.06 511
14.08 507
14.1 465
14.12 497
14.14 512
14.16 511
14.18 490
14.2 494
14.22 522
14.24 488
14.26 515
14.28 492
14.3 453
14.32 496
14.34 499
14.36 446
14.38 480
14.4 502
14.42 532
14.44 496
14.46 487
14.48 473
14.5 471
14.52 502
14.54 492
14.56 491
14.58 505
14.6 511
14.62 545
14.64 468
14.66 493
14.68 503
14.7 502
14.72 479
14.74 540
14.76 504
14.78 484
14.8 528
14.82 518
14.84 452
14.86 533
14.88 501
14.9 520
14.92 493
14.94 449
14.96 469
14.98 537
15 504
15.02 490
15.04 517
15.06 510
15.08 540
15.1 547
15.12 499
15.14 481
15.16 500
15.18 513
15.2 487
15.22 529
15.24 516
15.26 521
15.28 535
15.3 547
15.32 546
15.34 524
15.36 546
15.38 536
15.4 509
15.42 524
15.44 500
15.46 540
15.48 521
15.5 485
15.52 512
15.54 551
15.56 555
15.58 539
15.6 555
15.62 542
15.64 536
15.66 537
15.68 573
15.7 607
15.72 552
15.74 571
15.76 579
15.78 517
15.8 529
15.82 480
15.84 543
15.86 582
15.88 547
15.9 572
15.92 547
15.94 540
15.96 528
15.98 508
16 531
16.02 560
16.04 597
16.06 567
16.08 526
16.1 592
16.12 510
16.14 552
16.16 529
16.18 585
16.2 557
16.22 556
16.24 585
16.26 579
16.28 574
16.3 601
16.32 574
16.34 546
16.36 571
16.38 600
16.4 616
16.42 560
16.44 545
16.46 567
16.48 583
16.5 592
16.52 591
16.54 586
16.56 595
16.58 603
16.6 604
16.62 620
16.64 613
16.66 669
16.68 593
16.7 658
16.72 635
16.74 649
16.76 691
16.78 690
16.8 732
16.82 733
16.84 785
16.86 853
16.88 861
16.9 913
16.92 1056
16.94 1148
16.96 1196
16.98 1278
17 1229
17.02 1170
17.04 1021
17.06 909
17.08 769
17.1 699
17.12 684
17.14 637
17.16 633
17.18 622
17.2 625
17.22 633
17.24 655
17.26 616
17.28 584
17.3 651
17.32 642
17.34 628
17.36 666
17.38 643
17.4 637
17.42 659
17.44 655
17.46 620
17.48 646
17.5 619
17.52 637
17.54 628
17.56 649
17.58 668
17.6 649
17.62 620
17.64 647
17.66 668
17.68 629
17.7 645
17.72 646
17.74 637
17.76 679
17.78 689
17.8 696
17.82 660
17.84 693
17.86 682
17.88 702
17.9 669
17.92 712
17.94 679
17.96 720
17.98 780
18 769
18.02 753
18.04 717
18.06 691
18.08 680
18.1 675
18.12 668
18.14 684
18.16 679
18.18 691
18.2 742
18.22 671
18.24 658
18.26 715
18.28 705
18.3 693
18.32 733
18.34 732
18.36 677
18.38 741
18.4 774
18.42 714
18.44 756
18.46 771
18.48 781
18.5 709
18.52 781
18.54 755
18.56 728
18.58 777
18.6 707
18.62 727
18.64 690
18.66 736
18.68 705
18.7 688
18.72 710
18.74 756
18.76 718
18.78 706
18.8 744
18.82 740
18.84 695
18.86 785
18.88 773
18.9 712
18.92 707
18.94 757
18.96 740
18.98 744
19 728
19.02 737
19.04 726
19.06 714
19.08 739
19.1 722
19.12 783
19.14 773
19.16 738
19.18 768
19.2 780
19.22 795
19.24 710
19.26 762
19.28 783
19.3 823
19.32 727
19.34 790
19.36 795
19.38 815
19.4 802
19.42 784
19.44 782
19.46 815
19.48 764
19.5 778
19.52 792
19.54 758
19.56 796
19.58 789
19.6 767
19.62 812
19.64 776
19.66 810
19.68 795
19.7 822
19.72 802
19.74 820
19.76 884
19.78 887
19.8 866
19.82 890
19.84 900
19.86 900
19.88 970
19.9 982
19.92 1023
19.94 1016
19.96 959
19.98 955
20 897