File: xrd-UiO-67/pxrddata/39-17.ASC
3 2837
3.02 2679
3.04 2455
3.06 2344
3.08 2255
3.1 2221
3.12 2126
3.14 1950
3.16 2013
3.18 1943
3.2 1982
3.22 1950
3.24 1864
3.26 1854
3.28 1833
3.3 1797
3.32 1816
3.34 1767
3.36 1711
3.38 1757
3.4 1737
3.42 1803
3.44 1746
3.46 1680
3.48 1634
3.5 1594
3.52 1633
3.54 1631
3.56 1572
3.58 1558
3.6 1533
3.62 1459
3.64 1552
3.66 1579
3.68 1539
3.7 1408
3.72 1481
3.74 1484
3.76 1416
3.78 1428
3.8 1377
3.82 1381
3.84 1327
3.86 1325
3.88 1348
3.9 1318
3.92 1337
3.94 1314
3.96 1321
3.98 1265
4 1372
4.02 1264
4.04 1209
4.06 1217
4.08 1180
4.1 1219
4.12 1199
4.14 1202
4.16 1156
4.18 1187
4.2 1147
4.22 1186
4.24 1188
4.26 1088
4.28 1084
4.3 1104
4.32 1094
4.34 1143
4.36 1112
4.38 1055
4.4 1037
4.42 1050
4.44 1076
4.46 1009
4.48 992
4.5 1043
4.52 1058
4.54 982
4.56 1006
4.58 1023
4.6 992
4.62 1022
4.64 976
4.66 977
4.68 938
4.7 947
4.72 915
4.74 890
4.76 921
4.78 932
4.8 955
4.82 923
4.84 929
4.86 852
4.88 916
4.9 923
4.92 849
4.94 880
4.96 896
4.98 961
5 919
5.02 815
5.04 880
5.06 834
5.08 851
5.1 890
5.12 887
5.14 827
5.16 885
5.18 844
5.2 796
5.22 835
5.24 862
5.26 835
5.28 802
5.3 814
5.32 798
5.34 841
5.36 801
5.38 775
5.4 815
5.42 771
5.44 836
5.46 798
5.48 791
5.5 726
5.52 730
5.54 736
5.56 752
5.58 762
5.6 821
5.62 786
5.64 772
5.66 798
5.68 740
5.7 796
5.72 726
5.74 721
5.76 742
5.78 714
5.8 763
5.82 777
5.84 712
5.86 722
5.88 762
5.9 729
5.92 756
5.94 739
5.96 707
5.98 732
6 729
6.02 695
6.04 720
6.06 703
6.08 773
6.1 756
6.12 707
6.14 732
6.16 754
6.18 677
6.2 693
6.22 689
6.24 711
6.26 665
6.28 699
6.3 694
6.32 707
6.34 711
6.36 690
6.38 705
6.4 688
6.42 687
6.44 735
6.46 674
6.48 731
6.5 720
6.52 673
6.54 698
6.56 689
6.58 654
6.6 729
6.62 736
6.64 684
6.66 681
6.68 728
6.7 660
6.72 674
6.74 676
6.76 691
6.78 732
6.8 673
6.82 627
6.84 703
6.86 665
6.88 678
6.9 680
6.92 720
6.94 684
6.96 666
6.98 684
7 689
7.02 673
7.04 678
7.06 679
7.08 658
7.1 689
7.12 649
7.14 672
7.16 647
7.18 667
7.2 669
7.22 683
7.24 685
7.26 719
7.28 700
7.3 695
7.32 633
7.34 698
7.36 696
7.38 640
7.4 700
7.42 658
7.44 703
7.46 677
7.48 672
7.5 691
7.52 678
7.54 712
7.56 708
7.58 681
7.6 667
7.62 679
7.64 689
7.66 639
7.68 642
7.7 712
7.72 656
7.74 631
7.76 685
7.78 688
7.8 697
7.82 657
7.84 712
7.86 666
7.88 691
7.9 676
7.92 676
7.94 701
7.96 678
7.98 686
8 653
8.02 656
8.04 630
8.06 674
8.08 694
8.1 645
8.12 683
8.14 671
8.16 661
8.18 669
8.2 673
8.22 681
8.24 680
8.26 640
8.28 653
8.3 661
8.32 694
8.34 704
8.36 616
8.38 682
8.4 680
8.42 704
8.44 674
8.46 653
8.48 644
8.5 700
8.52 735
8.54 712
8.56 704
8.58 691
8.6 704
8.62 703
8.64 757
8.66 776
8.68 794
8.7 722
8.72 754
8.74 786
8.76 795
8.78 743
8.8 800
8.82 768
8.84 804
8.86 792
8.88 855
8.9 908
8.92 964
8.94 939
8.96 962
8.98 916
9 932
9.02 901
9.04 923
9.06 882
9.08 836
9.1 838
9.12 872
9.14 825
9.16 798
9.18 816
9.2 869
9.22 835
9.24 837
9.26 747
9.28 796
9.3 760
9.32 768
9.34 799
9.36 787
9.38 800
9.4 777
9.42 738
9.44 782
9.46 752
9.48 721
9.5 734
9.52 694
9.54 700
9.56 771
9.58 787
9.6 772
9.62 718
9.64 745
9.66 764
9.68 751
9.7 754
9.72 733
9.74 764
9.76 795
9.78 832
9.8 824
9.82 815
9.84 842
9.86 796
9.88 841
9.9 888
9.92 921
9.94 853
9.96 878
9.98 832
10 859
10.02 866
10.04 824
10.06 862
10.08 796
10.1 773
10.12 726
10.14 735
10.16 768
10.18 711
10.2 719
10.22 757
10.24 710
10.26 663
10.28 689
10.3 634
10.32 686
10.34 697
10.36 675
10.38 659
10.4 625
10.42 652
10.44 634
10.46 630
10.48 629
10.5 596
10.52 601
10.54 656
10.56 626
10.58 633
10.6 597
10.62 607
10.64 614
10.66 663
10.68 672
10.7 603
10.72 600
10.74 621
10.76 601
10.78 554
10.8 585
10.82 615
10.84 562
10.86 578
10.88 618
10.9 565
10.92 635
10.94 587
10.96 582
10.98 585
11 594
11.02 607
11.04 578
11.06 591
11.08 546
11.1 571
11.12 583
11.14 595
11.16 549
11.18 568
11.2 525
11.22 546
11.24 541
11.26 592
11.28 557
11.3 580
11.32 560
11.34 563
11.36 549
11.38 534
11.4 571
11.42 548
11.44 547
11.46 546
11.48 560
11.5 540
11.52 579
11.54 542
11.56 569
11.58 568
11.6 521
11.62 563
11.64 577
11.66 569
11.68 532
11.7 550
11.72 560
11.74 558
11.76 533
11.78 562
11.8 519
11.82 537
11.84 548
11.86 559
11.88 570
11.9 525
11.92 495
11.94 535
11.96 533
11.98 528
12 560
12.02 539
12.04 569
12.06 541
12.08 556
12.1 575
12.12 528
12.14 551
12.16 546
12.18 549
12.2 574
12.22 529
12.24 539
12.26 566
12.28 542
12.3 588
12.32 557
12.34 556
12.36 549
12.38 539
12.4 592
12.42 569
12.44 607
12.46 592
12.48 626
12.5 584
12.52 662
12.54 640
12.56 659
12.58 727
12.6 689
12.62 723
12.64 671
12.66 726
12.68 712
12.7 651
12.72 667
12.74 587
12.76 596
12.78 615
12.8 529
12.82 601
12.84 603
12.86 587
12.88 583
12.9 586
12.92 602
12.94 586
12.96 628
12.98 609
13 599
13.02 587
13.04 575
13.06 565
13.08 561
13.1 564
13.12 561
13.14 564
13.16 570
13.18 595
13.2 581
13.22 647
13.24 576
13.26 575
13.28 627
13.3 610
13.32 582
13.34 594
13.36 616
13.38 604
13.4 600
13.42 593
13.44 586
13.46 595
13.48 614
13.5 600
13.52 600
13.54 602
13.56 572
13.58 591
13.6 624
13.62 570
13.64 573
13.66 584
13.68 562
13.7 584
13.72 586
13.74 588
13.76 563
13.78 549
13.8 531
13.82 569
13.84 571
13.86 581
13.88 580
13.9 592
13.92 579
13.94 543
13.96 566
13.98 585
14 586
14.02 569
14.04 620
14.06 631
14.08 570
14.1 563
14.12 573
14.14 615
14.16 604
14.18 545
14.2 590
14.22 564
14.24 602
14.26 573
14.28 605
14.3 547
14.32 596
14.34 621
14.36 627
14.38 602
14.4 635
14.42 595
14.44 572
14.46 569
14.48 593
14.5 631
14.52 638
14.54 640
14.56 614
14.58 626
14.6 596
14.62 603
14.64 631
14.66 611
14.68 603
14.7 588
14.72 582
14.74 599
14.76 595
14.78 611
14.8 627
14.82 622
14.84 611
14.86 637
14.88 604
14.9 621
14.92 642
14.94 592
14.96 634
14.98 671
15 639
15.02 641
15.04 594
15.06 586
15.08 594
15.1 588
15.12 570
15.14 626
15.16 620
15.18 658
15.2 630
15.22 657
15.24 660
15.26 605
15.28 623
15.3 587
15.32 659
15.34 638
15.36 645
15.38 629
15.4 637
15.42 668
15.44 665
15.46 627
15.48 648
15.5 688
15.52 658
15.54 628
15.56 661
15.58 665
15.6 658
15.62 652
15.64 619
15.66 627
15.68 623
15.7 741
15.72 619
15.74 695
15.76 667
15.78 680
15.8 652
15.82 647
15.84 632
15.86 661
15.88 699
15.9 668
15.92 702
15.94 630
15.96 688
15.98 706
16 633
16.02 658
16.04 659
16.06 665
16.08 711
16.1 718
16.12 642
16.14 713
16.16 713
16.18 750
16.2 705
16.22 692
16.24 695
16.26 683
16.28 696
16.3 692
16.32 663
16.34 730
16.36 750
16.38 700
16.4 698
16.42 762
16.44 726
16.46 724
16.48 768
16.5 707
16.52 682
16.54 749
16.56 772
16.58 772
16.6 699
16.62 779
16.64 728
16.66 740
16.68 753
16.7 752
16.72 758
16.74 807
16.76 807
16.78 813
16.8 852
16.82 807
16.84 885
16.86 958
16.88 964
16.9 1057
16.92 1174
16.94 1247
16.96 1318
16.98 1338
17 1324
17.02 1267
17.04 1062
17.06 999
17.08 905
17.1 898
17.12 835
17.14 821
17.16 819
17.18 807
17.2 780
17.22 774
17.24 788
17.26 830
17.28 786
17.3 808
17.32 738
17.34 728
17.36 766
17.38 845
17.4 810
17.42 764
17.44 852
17.46 792
17.48 789
17.5 784
17.52 825
17.54 830
17.56 770
17.58 812
17.6 811
17.62 804
17.64 799
17.66 803
17.68 831
17.7 848
17.72 884
17.74 823
17.76 848
17.78 890
17.8 837
17.82 924
17.84 840
17.86 893
17.88 874
17.9 820
17.92 851
17.94 911
17.96 823
17.98 871
18 850
18.02 876
18.04 903
18.06 863
18.08 894
18.1 893
18.12 876
18.14 893
18.16 892
18.18 880
18.2 931
18.22 866
18.24 874
18.26 869
18.28 895
18.3 899
18.32 867
18.34 865
18.36 954
18.38 908
18.4 916
18.42 920
18.44 883
18.46 961
18.48 957
18.5 942
18.52 901
18.54 940
18.56 945
18.58 940
18.6 970
18.62 929
18.64 948
18.66 877
18.68 943
18.7 952
18.72 1001
18.74 915
18.76 916
18.78 975
18.8 945
18.82 1011
18.84 946
18.86 972
18.88 964
18.9 946
18.92 936
18.94 993
18.96 955
18.98 957
19 998
19.02 1004
19.04 993
19.06 982
19.08 946
19.1 999
19.12 984
19.14 1000
19.16 1004
19.18 998
19.2 984
19.22 1027
19.24 982
19.26 1017
19.28 988
19.3 986
19.32 982
19.34 1048
19.36 1009
19.38 995
19.4 1055
19.42 1002
19.44 967
19.46 1012
19.48 992
19.5 1041
19.52 1043
19.54 1051
19.56 1033
19.58 978
19.6 1069
19.62 1057
19.64 1047
19.66 1058
19.68 1048
19.7 1041
19.72 1018
19.74 1112
19.76 1069
19.78 1045
19.8 1124
19.82 1051
19.84 1121
19.86 1120
19.88 1030
19.9 1054
19.92 1098
19.94 1119
19.96 1190
19.98 1126
20 1127