File: xrd-UiO-67/pxrddata/39-10.ASC
3 2687
3.02 2439
3.04 2271
3.06 2156
3.08 2071
3.1 2057
3.12 1875
3.14 1909
3.16 1789
3.18 1849
3.2 1749
3.22 1823
3.24 1682
3.26 1668
3.28 1690
3.3 1621
3.32 1632
3.34 1608
3.36 1659
3.38 1536
3.4 1530
3.42 1604
3.44 1553
3.46 1547
3.48 1526
3.5 1508
3.52 1475
3.54 1494
3.56 1461
3.58 1353
3.6 1384
3.62 1370
3.64 1362
3.66 1300
3.68 1343
3.7 1357
3.72 1394
3.74 1299
3.76 1344
3.78 1330
3.8 1271
3.82 1248
3.84 1280
3.86 1276
3.88 1249
3.9 1213
3.92 1197
3.94 1175
3.96 1241
3.98 1198
4 1236
4.02 1241
4.04 1231
4.06 1160
4.08 1178
4.1 1093
4.12 1201
4.14 1167
4.16 1096
4.18 1125
4.2 1088
4.22 1109
4.24 1089
4.26 1075
4.28 1100
4.3 1133
4.32 1213
4.34 1152
4.36 1153
4.38 1098
4.4 1121
4.42 1107
4.44 1169
4.46 1113
4.48 1124
4.5 1158
4.52 1108
4.54 1165
4.56 1106
4.58 1145
4.6 1187
4.62 1128
4.64 1154
4.66 1136
4.68 1203
4.7 1236
4.72 1261
4.74 1231
4.76 1264
4.78 1312
4.8 1285
4.82 1315
4.84 1411
4.86 1345
4.88 1459
4.9 1448
4.92 1422
4.94 1598
4.96 1598
4.98 1646
5 1679
5.02 1689
5.04 1769
5.06 1957
5.08 2019
5.1 2054
5.12 2274
5.14 2396
5.16 2409
5.18 2535
5.2 2841
5.22 3130
5.24 3271
5.26 3626
5.28 3702
5.3 4072
5.32 4484
5.34 5198
5.36 5994
5.38 6910
5.4 8171
5.42 8875
5.44 7314
5.46 5325
5.48 3835
5.5 3051
5.52 2834
5.54 2616
5.56 2271
5.58 2187
5.6 2101
5.62 1973
5.64 1792
5.66 1761
5.68 1642
5.7 1591
5.72 1541
5.74 1455
5.76 1409
5.78 1383
5.8 1343
5.82 1252
5.84 1270
5.86 1145
5.88 1219
5.9 1133
5.92 1043
5.94 1058
5.96 1016
5.98 1003
6 949
6.02 1010
6.04 943
6.06 920
6.08 968
6.1 918
6.12 917
6.14 840
6.16 828
6.18 851
6.2 825
6.22 866
6.24 838
6.26 869
6.28 851
6.3 812
6.32 789
6.34 825
6.36 827
6.38 815
6.4 803
6.42 807
6.44 863
6.46 794
6.48 793
6.5 742
6.52 770
6.54 771
6.56 771
6.58 762
6.6 788
6.62 783
6.64 791
6.66 771
6.68 739
6.7 778
6.72 760
6.74 776
6.76 816
6.78 731
6.8 735
6.82 784
6.84 660
6.86 759
6.88 751
6.9 706
6.92 672
6.94 720
6.96 741
6.98 761
7 703
7.02 754
7.04 728
7.06 707
7.08 727
7.1 669
7.12 722
7.14 707
7.16 645
7.18 679
7.2 713
7.22 703
7.24 686
7.26 682
7.28 607
7.3 709
7.32 707
7.34 676
7.36 687
7.38 648
7.4 654
7.42 687
7.44 633
7.46 645
7.48 685
7.5 639
7.52 672
7.54 648
7.56 656
7.58 685
7.6 682
7.62 667
7.64 627
7.66 703
7.68 666
7.7 703
7.72 666
7.74 678
7.76 690
7.78 653
7.8 691
7.82 663
7.84 643
7.86 693
7.88 718
7.9 660
7.92 656
7.94 645
7.96 669
7.98 685
8 656
8.02 674
8.04 677
8.06 663
8.08 659
8.1 696
8.12 668
8.14 665
8.16 678
8.18 632
8.2 677
8.22 683
8.24 665
8.26 653
8.28 651
8.3 657
8.32 683
8.34 652
8.36 643
8.38 625
8.4 647
8.42 630
8.44 643
8.46 658
8.48 659
8.5 631
8.52 649
8.54 646
8.56 652
8.58 662
8.6 662
8.62 650
8.64 689
8.66 675
8.68 602
8.7 666
8.72 645
8.74 640
8.76 670
8.78 668
8.8 692
8.82 616
8.84 710
8.86 666
8.88 664
8.9 709
8.92 744
8.94 721
8.96 756
8.98 740
9 776
9.02 774
9.04 881
9.06 817
9.08 864
9.1 905
9.12 949
9.14 1013
9.16 1026
9.18 1051
9.2 1166
9.22 1269
9.24 1395
9.26 1514
9.28 1772
9.3 2056
9.32 2474
9.34 2655
9.36 2340
9.38 1639
9.4 1239
9.42 1053
9.44 983
9.46 868
9.48 842
9.5 819
9.52 797
9.54 768
9.56 706
9.58 753
9.6 725
9.62 660
9.64 685
9.66 699
9.68 689
9.7 719
9.72 662
9.74 725
9.76 708
9.78 679
9.8 680
9.82 628
9.84 669
9.86 653
9.88 652
9.9 619
9.92 649
9.94 699
9.96 669
9.98 698
10 655
10.02 629
10.04 700
10.06 691
10.08 689
10.1 704
10.12 651
10.14 645
10.16 655
10.18 666
10.2 664
10.22 666
10.24 635
10.26 660
10.28 686
10.3 651
10.32 652
10.34 638
10.36 634
10.38 671
10.4 700
10.42 705
10.44 746
10.46 702
10.48 747
10.5 718
10.52 747
10.54 776
10.56 784
10.58 816
10.6 831
10.62 859
10.64 889
10.66 982
10.68 1057
10.7 1160
10.72 1197
10.74 1378
10.76 1578
10.78 1644
10.8 1578
10.82 1266
10.84 1155
10.86 989
10.88 969
10.9 922
10.92 875
10.94 843
10.96 850
10.98 830
11 791
11.02 757
11.04 725
11.06 705
11.08 719
11.1 687
11.12 647
11.14 686
11.16 635
11.18 682
11.2 636
11.22 588
11.24 648
11.26 599
11.28 670
11.3 607
11.32 630
11.34 643
11.36 672
11.38 607
11.4 598
11.42 602
11.44 597
11.46 584
11.48 569
11.5 620
11.52 624
11.54 596
11.56 615
11.58 631
11.6 644
11.62 648
11.64 615
11.66 564
11.68 643
11.7 626
11.72 607
11.74 638
11.76 602
11.78 580
11.8 607
11.82 609
11.84 579
11.86 614
11.88 609
11.9 611
11.92 608
11.94 601
11.96 621
11.98 566
12 629
12.02 634
12.04 641
12.06 619
12.08 640
12.1 646
12.12 647
12.14 677
12.16 755
12.18 746
12.2 752
12.22 789
12.24 778
12.26 789
12.28 769
12.3 789
12.32 745
12.34 708
12.36 706
12.38 705
12.4 655
12.42 647
12.44 629
12.46 643
12.48 625
12.5 666
12.52 651
12.54 659
12.56 673
12.58 628
12.6 605
12.62 654
12.64 636
12.66 648
12.68 626
12.7 607
12.72 637
12.74 654
12.76 615
12.78 610
12.8 624
12.82 641
12.84 649
12.86 593
12.88 636
12.9 625
12.92 685
12.94 628
12.96 655
12.98 694
13 644
13.02 667
13.04 688
13.06 679
13.08 638
13.1 698
13.12 656
13.14 605
13.16 639
13.18 651
13.2 671
13.22 610
13.24 659
13.26 682
13.28 760
13.3 722
13.32 601
13.34 625
13.36 675
13.38 665
13.4 679
13.42 671
13.44 670
13.46 662
13.48 642
13.5 653
13.52 732
13.54 640
13.56 657
13.58 679
13.6 721
13.62 640
13.64 659
13.66 666
13.68 639
13.7 658
13.72 656
13.74 678
13.76 646
13.78 693
13.8 638
13.82 646
13.84 674
13.86 678
13.88 646
13.9 642
13.92 648
13.94 657
13.96 646
13.98 648
14 657
14.02 651
14.04 642
14.06 701
14.08 653
14.1 631
14.12 682
14.14 652
14.16 676
14.18 728
14.2 710
14.22 727
14.24 818
14.26 738
14.28 720
14.3 726
14.32 730
14.34 738
14.36 710
14.38 724
14.4 738
14.42 687
14.44 748
14.46 721
14.48 694
14.5 673
14.52 661
14.54 685
14.56 672
14.58 685
14.6 693
14.62 704
14.64 667
14.66 736
14.68 643
14.7 703
14.72 670
14.74 667
14.76 660
14.78 654
14.8 658
14.82 688
14.84 697
14.86 688
14.88 682
14.9 674
14.92 686
14.94 662
14.96 708
14.98 676
15 694
15.02 660
15.04 722
15.06 694
15.08 713
15.1 675
15.12 707
15.14 744
15.16 691
15.18 669
15.2 676
15.22 654
15.24 724
15.26 714
15.28 734
15.3 693
15.32 694
15.34 715
15.36 688
15.38 708
15.4 668
15.42 714
15.44 677
15.46 669
15.48 711
15.5 685
15.52 723
15.54 753
15.56 718
15.58 744
15.6 717
15.62 667
15.64 736
15.66 700
15.68 697
15.7 691
15.72 717
15.74 700
15.76 697
15.78 713
15.8 731
15.82 733
15.84 700
15.86 700
15.88 749
15.9 742
15.92 740
15.94 719
15.96 741
15.98 721
16 755
16.02 764
16.04 765
16.06 760
16.08 749
16.1 724
16.12 751
16.14 813
16.16 810
16.18 762
16.2 748
16.22 794
16.24 743
16.26 770
16.28 800
16.3 790
16.32 796
16.34 786
16.36 785
16.38 818
16.4 787
16.42 760
16.44 765
16.46 781
16.48 786
16.5 779
16.52 713
16.54 812
16.56 783
16.58 773
16.6 822
16.62 787
16.64 808
16.66 805
16.68 794
16.7 773
16.72 831
16.74 796
16.76 821
16.78 775
16.8 819
16.82 797
16.84 824
16.86 827
16.88 855
16.9 848
16.92 867
16.94 845
16.96 907
16.98 872
17 829
17.02 866
17.04 842
17.06 854
17.08 829
17.1 875
17.12 856
17.14 829
17.16 856
17.18 902
17.2 838
17.22 939
17.24 904
17.26 891
17.28 847
17.3 916
17.32 912
17.34 951
17.36 866
17.38 910
17.4 881
17.42 907
17.44 836
17.46 922
17.48 950
17.5 943
17.52 926
17.54 917
17.56 891
17.58 891
17.6 942
17.62 889
17.64 884
17.66 910
17.68 914
17.7 874
17.72 879
17.74 914
17.76 937
17.78 944
17.8 880
17.82 931
17.84 926
17.86 954
17.88 902
17.9 960
17.92 863
17.94 919
17.96 891
17.98 900
18 979
18.02 944
18.04 883
18.06 885
18.08 950
18.1 899
18.12 955
18.14 934
18.16 952
18.18 912
18.2 929
18.22 916
18.24 902
18.26 888
18.28 922
18.3 923
18.32 983
18.34 936
18.36 967
18.38 927
18.4 997
18.42 997
18.44 936
18.46 982
18.48 986
18.5 970
18.52 1008
18.54 949
18.56 993
18.58 1033
18.6 1057
18.62 1098
18.64 1044
18.66 1074
18.68 1080
18.7 1134
18.72 1090
18.74 1064
18.76 988
18.78 1009
18.8 1030
18.82 981
18.84 1000
18.86 1037
18.88 1004
18.9 992
18.92 1063
18.94 1090
18.96 1045
18.98 1114
19 1114
19.02 1124
19.04 1009
19.06 1097
19.08 1079
19.1 1125
19.12 1083
19.14 1090
19.16 1122
19.18 1095
19.2 1047
19.22 1128
19.24 1084
19.26 1102
19.28 1123
19.3 1139
19.32 1152
19.34 1154
19.36 1240
19.38 1254
19.4 1344
19.42 1339
19.44 1478
19.46 1380
19.48 1413
19.5 1392
19.52 1344
19.54 1233
19.56 1269
19.58 1244
19.6 1286
19.62 1219
19.64 1177
19.66 1174
19.68 1132
19.7 1198
19.72 1151
19.74 1129
19.76 1183
19.78 1184
19.8 1209
19.82 1163
19.84 1126
19.86 1190
19.88 1187
19.9 1151
19.92 1142
19.94 1211
19.96 1140
19.98 1166
20 1154