File: xrd-UiO-67/pxrddata/39-18.ASC
3 2552
3.02 2344
3.04 2279
3.06 2091
3.08 2027
3.1 1887
3.12 1839
3.14 1860
3.16 1804
3.18 1771
3.2 1704
3.22 1689
3.24 1680
3.26 1674
3.28 1650
3.3 1622
3.32 1603
3.34 1600
3.36 1569
3.38 1537
3.4 1507
3.42 1499
3.44 1496
3.46 1415
3.48 1426
3.5 1423
3.52 1401
3.54 1431
3.56 1382
3.58 1339
3.6 1324
3.62 1280
3.64 1294
3.66 1251
3.68 1271
3.7 1270
3.72 1230
3.74 1263
3.76 1250
3.78 1260
3.8 1184
3.82 1118
3.84 1143
3.86 1198
3.88 1157
3.9 1136
3.92 1110
3.94 1093
3.96 1166
3.98 1069
4 1043
4.02 1061
4.04 1006
4.06 1017
4.08 982
4.1 969
4.12 1032
4.14 987
4.16 978
4.18 995
4.2 988
4.22 940
4.24 918
4.26 891
4.28 971
4.3 928
4.32 874
4.34 894
4.36 907
4.38 939
4.4 959
4.42 907
4.44 885
4.46 833
4.48 878
4.5 817
4.52 821
4.54 879
4.56 827
4.58 812
4.6 794
4.62 830
4.64 823
4.66 792
4.68 810
4.7 776
4.72 792
4.74 767
4.76 785
4.78 750
4.8 764
4.82 825
4.84 768
4.86 772
4.88 787
4.9 766
4.92 741
4.94 764
4.96 738
4.98 722
5 692
5.02 726
5.04 705
5.06 683
5.08 697
5.1 672
5.12 676
5.14 746
5.16 721
5.18 689
5.2 645
5.22 706
5.24 686
5.26 667
5.28 711
5.3 692
5.32 695
5.34 704
5.36 648
5.38 666
5.4 688
5.42 690
5.44 699
5.46 691
5.48 633
5.5 680
5.52 667
5.54 698
5.56 674
5.58 640
5.6 677
5.62 655
5.64 674
5.66 683
5.68 626
5.7 695
5.72 701
5.74 608
5.76 616
5.78 628
5.8 602
5.82 678
5.84 647
5.86 641
5.88 674
5.9 623
5.92 629
5.94 651
5.96 598
5.98 614
6 652
6.02 603
6.04 627
6.06 650
6.08 714
6.1 639
6.12 648
6.14 647
6.16 641
6.18 591
6.2 635
6.22 649
6.24 605
6.26 626
6.28 609
6.3 635
6.32 628
6.34 648
6.36 602
6.38 579
6.4 625
6.42 625
6.44 630
6.46 618
6.48 594
6.5 640
6.52 621
6.54 639
6.56 635
6.58 623
6.6 587
6.62 605
6.64 635
6.66 611
6.68 648
6.7 575
6.72 611
6.74 575
6.76 634
6.78 643
6.8 647
6.82 641
6.84 607
6.86 595
6.88 596
6.9 566
6.92 622
6.94 600
6.96 597
6.98 551
7 576
7.02 594
7.04 625
7.06 598
7.08 579
7.1 550
7.12 598
7.14 589
7.16 577
7.18 584
7.2 584
7.22 565
7.24 595
7.26 611
7.28 590
7.3 581
7.32 566
7.34 544
7.36 602
7.38 616
7.4 560
7.42 585
7.44 624
7.46 584
7.48 530
7.5 585
7.52 583
7.54 601
7.56 508
7.58 619
7.6 600
7.62 619
7.64 580
7.66 601
7.68 648
7.7 579
7.72 599
7.74 622
7.76 573
7.78 614
7.8 592
7.82 601
7.84 575
7.86 585
7.88 630
7.9 599
7.92 606
7.94 561
7.96 604
7.98 565
8 614
8.02 561
8.04 608
8.06 600
8.08 610
8.1 632
8.12 580
8.14 625
8.16 611
8.18 627
8.2 586
8.22 608
8.24 585
8.26 587
8.28 615
8.3 624
8.32 608
8.34 677
8.36 628
8.38 668
8.4 694
8.42 678
8.44 708
8.46 688
8.48 676
8.5 691
8.52 721
8.54 725
8.56 793
8.58 821
8.6 803
8.62 859
8.64 876
8.66 893
8.68 994
8.7 986
8.72 1104
8.74 1128
8.76 1247
8.78 1373
8.8 1430
8.82 1520
8.84 1705
8.86 1966
8.88 2230
8.9 2549
8.92 2886
8.94 3439
8.96 3760
8.98 3857
9 3668
9.02 2833
9.04 2088
9.06 1483
9.08 1210
9.1 1092
9.12 946
9.14 909
9.16 896
9.18 805
9.2 848
9.22 770
9.24 867
9.26 768
9.28 779
9.3 845
9.32 839
9.34 788
9.36 767
9.38 776
9.4 727
9.42 719
9.44 765
9.46 724
9.48 724
9.5 711
9.52 715
9.54 731
9.56 775
9.58 727
9.6 762
9.62 732
9.64 828
9.66 830
9.68 820
9.7 866
9.72 907
9.74 945
9.76 983
9.78 1109
9.8 1205
9.82 1236
9.84 1343
9.86 1479
9.88 1718
9.9 2008
9.92 2330
9.94 2627
9.96 2318
9.98 1658
10 1227
10.02 988
10.04 846
10.06 776
10.08 684
10.1 706
10.12 637
10.14 620
10.16 673
10.18 590
10.2 594
10.22 636
10.24 603
10.26 573
10.28 614
10.3 594
10.32 604
10.34 576
10.36 573
10.38 618
10.4 528
10.42 582
10.44 577
10.46 554
10.48 557
10.5 517
10.52 598
10.54 535
10.56 603
10.58 645
10.6 546
10.62 590
10.64 597
10.66 617
10.68 567
10.7 590
10.72 526
10.74 573
10.76 572
10.78 585
10.8 604
10.82 574
10.84 617
10.86 574
10.88 605
10.9 567
10.92 598
10.94 553
10.96 587
10.98 570
11 549
11.02 612
11.04 580
11.06 539
11.08 523
11.1 549
11.12 539
11.14 557
11.16 497
11.18 526
11.2 541
11.22 535
11.24 537
11.26 544
11.28 540
11.3 527
11.32 509
11.34 531
11.36 508
11.38 546
11.4 514
11.42 506
11.44 543
11.46 499
11.48 499
11.5 522
11.52 537
11.54 526
11.56 503
11.58 544
11.6 527
11.62 531
11.64 556
11.66 518
11.68 563
11.7 566
11.72 539
11.74 568
11.76 547
11.78 505
11.8 528
11.82 549
11.84 528
11.86 487
11.88 512
11.9 583
11.92 540
11.94 503
11.96 532
11.98 543
12 536
12.02 548
12.04 517
12.06 527
12.08 533
12.1 562
12.12 515
12.14 545
12.16 534
12.18 557
12.2 572
12.22 527
12.24 533
12.26 543
12.28 588
12.3 524
12.32 539
12.34 585
12.36 564
12.38 565
12.4 545
12.42 577
12.44 619
12.46 620
12.48 609
12.5 627
12.52 652
12.54 654
12.56 698
12.58 745
12.6 777
12.62 812
12.64 800
12.66 829
12.68 876
12.7 875
12.72 788
12.74 788
12.76 725
12.78 669
12.8 625
12.82 602
12.84 627
12.86 639
12.88 610
12.9 603
12.92 560
12.94 587
12.96 570
12.98 566
13 556
13.02 597
13.04 658
13.06 573
13.08 604
13.1 576
13.12 609
13.14 627
13.16 654
13.18 660
13.2 707
13.22 713
13.24 742
13.26 760
13.28 762
13.3 790
13.32 809
13.34 861
13.36 938
13.38 1042
13.4 1139
13.42 1049
13.44 938
13.46 789
13.48 709
13.5 676
13.52 608
13.54 550
13.56 584
13.58 607
13.6 565
13.62 570
13.64 547
13.66 550
13.68 594
13.7 619
13.72 562
13.74 585
13.76 613
13.78 561
13.8 546
13.82 549
13.84 579
13.86 602
13.88 527
13.9 563
13.92 562
13.94 575
13.96 571
13.98 565
14 562
14.02 558
14.04 584
14.06 529
14.08 569
14.1 599
14.12 538
14.14 562
14.16 562
14.18 568
14.2 574
14.22 582
14.24 594
14.26 541
14.28 579
14.3 554
14.32 591
14.34 562
14.36 581
14.38 573
14.4 554
14.42 571
14.44 604
14.46 584
14.48 616
14.5 591
14.52 591
14.54 609
14.56 609
14.58 584
14.6 572
14.62 574
14.64 600
14.66 561
14.68 632
14.7 597
14.72 577
14.74 609
14.76 609
14.78 574
14.8 590
14.82 597
14.84 579
14.86 585
14.88 559
14.9 584
14.92 556
14.94 578
14.96 608
14.98 572
15 626
15.02 590
15.04 593
15.06 529
15.08 579
15.1 588
15.12 601
15.14 626
15.16 617
15.18 633
15.2 600
15.22 650
15.24 666
15.26 606
15.28 589
15.3 597
15.32 639
15.34 598
15.36 615
15.38 559
15.4 606
15.42 606
15.44 628
15.46 635
15.48 591
15.5 601
15.52 592
15.54 586
15.56 632
15.58 625
15.6 582
15.62 621
15.64 626
15.66 599
15.68 618
15.7 601
15.72 602
15.74 610
15.76 638
15.78 643
15.8 642
15.82 607
15.84 655
15.86 619
15.88 608
15.9 643
15.92 575
15.94 620
15.96 587
15.98 671
16 659
16.02 647
16.04 632
16.06 671
16.08 628
16.1 620
16.12 618
16.14 660
16.16 699
16.18 690
16.2 671
16.22 678
16.24 682
16.26 640
16.28 702
16.3 684
16.32 682
16.34 683
16.36 648
16.38 670
16.4 673
16.42 685
16.44 720
16.46 671
16.48 722
16.5 727
16.52 707
16.54 731
16.56 713
16.58 682
16.6 704
16.62 757
16.64 795
16.66 729
16.68 781
16.7 834
16.72 797
16.74 841
16.76 928
16.78 954
16.8 992
16.82 1072
16.84 1208
16.86 1293
16.88 1421
16.9 1582
16.92 1916
16.94 2317
16.96 2627
16.98 2839
17 2670
17.02 2256
17.04 1715
17.06 1430
17.08 1109
17.1 949
17.12 831
17.14 827
17.16 796
17.18 795
17.2 810
17.22 799
17.24 820
17.26 732
17.28 744
17.3 723
17.32 805
17.34 784
17.36 738
17.38 748
17.4 787
17.42 807
17.44 751
17.46 753
17.48 720
17.5 742
17.52 747
17.54 727
17.56 717
17.58 768
17.6 748
17.62 754
17.64 745
17.66 756
17.68 785
17.7 786
17.72 772
17.74 824
17.76 798
17.78 825
17.8 792
17.82 820
17.84 774
17.86 826
17.88 846
17.9 827
17.92 845
17.94 852
17.96 831
17.98 838
18 826
18.02 849
18.04 840
18.06 862
18.08 827
18.1 822
18.12 847
18.14 834
18.16 818
18.18 896
18.2 861
18.22 845
18.24 861
18.26 849
18.28 817
18.3 889
18.32 832
18.34 834
18.36 862
18.38 880
18.4 897
18.42 874
18.44 856
18.46 860
18.48 867
18.5 891
18.52 898
18.54 906
18.56 921
18.58 933
18.6 866
18.62 849
18.64 936
18.66 880
18.68 888
18.7 857
18.72 823
18.74 868
18.76 901
18.78 872
18.8 865
18.82 852
18.84 851
18.86 817
18.88 897
18.9 877
18.92 897
18.94 897
18.96 830
18.98 862
19 874
19.02 902
19.04 903
19.06 894
19.08 922
19.1 873
19.12 850
19.14 902
19.16 874
19.18 901
19.2 874
19.22 928
19.24 903
19.26 905
19.28 919
19.3 897
19.32 931
19.34 970
19.36 924
19.38 911
19.4 910
19.42 935
19.44 945
19.46 916
19.48 947
19.5 961
19.52 954
19.54 1011
19.56 929
19.58 948
19.6 961
19.62 970
19.64 971
19.66 935
19.68 997
19.7 1000
19.72 1013
19.74 1002
19.76 1086
19.78 1018
19.8 1096
19.82 1133
19.84 1179
19.86 1233
19.88 1317
19.9 1372
19.92 1374
19.94 1345
19.96 1339
19.98 1278
20 1169