File: xrd-UiO-67/pxrddata/39-12.ASC
3 2816
3.02 2642
3.04 2485
3.06 2289
3.08 2282
3.1 2135
3.12 2152
3.14 2080
3.16 2113
3.18 2053
3.2 1945
3.22 1903
3.24 1900
3.26 1955
3.28 1856
3.3 1912
3.32 1966
3.34 1885
3.36 1865
3.38 1921
3.4 1808
3.42 1845
3.44 1886
3.46 1782
3.48 1805
3.5 1812
3.52 1733
3.54 1705
3.56 1715
3.58 1740
3.6 1719
3.62 1766
3.64 1674
3.66 1666
3.68 1727
3.7 1629
3.72 1631
3.74 1703
3.76 1639
3.78 1643
3.8 1669
3.82 1674
3.84 1654
3.86 1625
3.88 1679
3.9 1705
3.92 1666
3.94 1676
3.96 1702
3.98 1665
4 1745
4.02 1706
4.04 1763
4.06 1706
4.08 1692
4.1 1800
4.12 1814
4.14 1724
4.16 1656
4.18 1712
4.2 1574
4.22 1572
4.24 1580
4.26 1468
4.28 1512
4.3 1535
4.32 1490
4.34 1524
4.36 1445
4.38 1438
4.4 1449
4.42 1435
4.44 1359
4.46 1344
4.48 1406
4.5 1421
4.52 1437
4.54 1403
4.56 1381
4.58 1410
4.6 1410
4.62 1393
4.64 1376
4.66 1336
4.68 1431
4.7 1383
4.72 1407
4.74 1366
4.76 1371
4.78 1405
4.8 1416
4.82 1422
4.84 1317
4.86 1378
4.88 1382
4.9 1459
4.92 1406
4.94 1437
4.96 1430
4.98 1439
5 1428
5.02 1383
5.04 1487
5.06 1470
5.08 1485
5.1 1443
5.12 1435
5.14 1507
5.16 1574
5.18 1620
5.2 1562
5.22 1628
5.24 1716
5.26 1700
5.28 1789
5.3 1792
5.32 1920
5.34 2064
5.36 2175
5.38 2339
5.4 2384
5.42 2186
5.44 1983
5.46 1820
5.48 1699
5.5 1626
5.52 1654
5.54 1699
5.56 1644
5.58 1657
5.6 1733
5.62 1676
5.64 1732
5.66 1885
5.68 1931
5.7 2055
5.72 2135
5.74 2319
5.76 2282
5.78 2163
5.8 1810
5.82 1595
5.84 1319
5.86 1274
5.88 1183
5.9 1130
5.92 1145
5.94 1154
5.96 1123
5.98 1022
6 1073
6.02 1049
6.04 1013
6.06 1034
6.08 1020
6.1 1090
6.12 1024
6.14 1006
6.16 978
6.18 1039
6.2 1037
6.22 1001
6.24 897
6.26 947
6.28 907
6.3 935
6.32 953
6.34 945
6.36 961
6.38 959
6.4 909
6.42 951
6.44 978
6.46 951
6.48 941
6.5 925
6.52 939
6.54 948
6.56 959
6.58 911
6.6 1022
6.62 990
6.64 1008
6.66 1014
6.68 989
6.7 995
6.72 1055
6.74 1036
6.76 1020
6.78 954
6.8 911
6.82 960
6.84 891
6.86 880
6.88 867
6.9 932
6.92 916
6.94 893
6.96 890
6.98 820
7 844
7.02 844
7.04 885
7.06 838
7.08 835
7.1 764
7.12 885
7.14 896
7.16 837
7.18 880
7.2 800
7.22 836
7.24 825
7.26 825
7.28 837
7.3 836
7.32 791
7.34 814
7.36 802
7.38 807
7.4 749
7.42 819
7.44 812
7.46 782
7.48 777
7.5 751
7.52 794
7.54 764
7.56 785
7.58 751
7.6 802
7.62 838
7.64 793
7.66 780
7.68 806
7.7 767
7.72 804
7.74 819
7.76 776
7.78 728
7.8 746
7.82 754
7.84 762
7.86 819
7.88 751
7.9 747
7.92 743
7.94 754
7.96 762
7.98 796
8 745
8.02 758
8.04 788
8.06 738
8.08 787
8.1 730
8.12 750
8.14 760
8.16 784
8.18 761
8.2 731
8.22 707
8.24 772
8.26 722
8.28 737
8.3 735
8.32 750
8.34 676
8.36 724
8.38 734
8.4 725
8.42 727
8.44 724
8.46 686
8.48 707
8.5 743
8.52 675
8.54 682
8.56 679
8.58 712
8.6 715
8.62 708
8.64 680
8.66 714
8.68 737
8.7 678
8.72 709
8.74 667
8.76 701
8.78 756
8.8 698
8.82 700
8.84 707
8.86 714
8.88 714
8.9 710
8.92 666
8.94 703
8.96 763
8.98 718
9 650
9.02 727
9.04 684
9.06 728
9.08 704
9.1 749
9.12 753
9.14 751
9.16 790
9.18 820
9.2 820
9.22 861
9.24 915
9.26 925
9.28 1014
9.3 1124
9.32 1175
9.34 1159
9.36 866
9.38 786
9.4 742
9.42 692
9.44 684
9.46 644
9.48 684
9.5 667
9.52 633
9.54 656
9.56 675
9.58 620
9.6 592
9.62 676
9.64 625
9.66 622
9.68 659
9.7 638
9.72 664
9.74 691
9.76 673
9.78 677
9.8 625
9.82 629
9.84 640
9.86 659
9.88 656
9.9 633
9.92 627
9.94 625
9.96 589
9.98 653
10 652
10.02 656
10.04 650
10.06 649
10.08 626
10.1 716
10.12 671
10.14 689
10.16 696
10.18 732
10.2 676
10.22 694
10.24 664
10.26 604
10.28 673
10.3 674
10.32 635
10.34 603
10.36 604
10.38 611
10.4 622
10.42 636
10.44 634
10.46 603
10.48 587
10.5 631
10.52 595
10.54 587
10.56 600
10.58 613
10.6 665
10.62 633
10.64 648
10.66 645
10.68 703
10.7 706
10.72 711
10.74 761
10.76 794
10.78 768
10.8 753
10.82 674
10.84 722
10.86 701
10.88 709
10.9 732
10.92 779
10.94 849
10.96 809
10.98 770
11 616
11.02 605
11.04 611
11.06 592
11.08 614
11.1 620
11.12 598
11.14 597
11.16 555
11.18 565
11.2 561
11.22 609
11.24 580
11.26 574
11.28 529
11.3 563
11.32 581
11.34 582
11.36 587
11.38 598
11.4 564
11.42 601
11.44 619
11.46 626
11.48 716
11.5 670
11.52 632
11.54 653
11.56 615
11.58 638
11.6 602
11.62 555
11.64 556
11.66 568
11.68 534
11.7 552
11.72 563
11.74 571
11.76 568
11.78 548
11.8 555
11.82 557
11.84 561
11.86 533
11.88 557
11.9 596
11.92 594
11.94 520
11.96 557
11.98 558
12 575
12.02 563
12.04 558
12.06 561
12.08 519
12.1 601
12.12 589
12.14 571
12.16 608
12.18 616
12.2 612
12.22 601
12.24 633
12.26 608
12.28 568
12.3 579
12.32 585
12.34 593
12.36 568
12.38 583
12.4 540
12.42 576
12.44 546
12.46 557
12.48 571
12.5 556
12.52 579
12.54 542
12.56 542
12.58 570
12.6 567
12.62 549
12.64 538
12.66 540
12.68 545
12.7 549
12.72 569
12.74 577
12.76 556
12.78 528
12.8 547
12.82 571
12.84 526
12.86 556
12.88 575
12.9 583
12.92 588
12.94 581
12.96 546
12.98 537
13 552
13.02 546
13.04 545
13.06 558
13.08 527
13.1 556
13.12 542
13.14 539
13.16 529
13.18 564
13.2 529
13.22 537
13.24 560
13.26 589
13.28 563
13.3 595
13.32 581
13.34 543
13.36 539
13.38 546
13.4 554
13.42 576
13.44 543
13.46 555
13.48 593
13.5 561
13.52 548
13.54 583
13.56 546
13.58 543
13.6 560
13.62 520
13.64 554
13.66 565
13.68 581
13.7 566
13.72 562
13.74 544
13.76 548
13.78 600
13.8 573
13.82 543
13.84 534
13.86 545
13.88 540
13.9 521
13.92 573
13.94 548
13.96 519
13.98 575
14 582
14.02 555
14.04 592
14.06 532
14.08 570
14.1 604
14.12 554
14.14 575
14.16 569
14.18 573
14.2 544
14.22 618
14.24 594
14.26 604
14.28 594
14.3 597
14.32 592
14.34 582
14.36 567
14.38 608
14.4 608
14.42 552
14.44 588
14.46 544
14.48 570
14.5 561
14.52 558
14.54 570
14.56 547
14.58 615
14.6 601
14.62 585
14.64 600
14.66 609
14.68 587
14.7 616
14.72 600
14.74 601
14.76 608
14.78 561
14.8 602
14.82 633
14.84 580
14.86 633
14.88 656
14.9 592
14.92 604
14.94 592
14.96 545
14.98 549
15 618
15.02 595
15.04 567
15.06 592
15.08 573
15.1 605
15.12 570
15.14 613
15.16 584
15.18 581
15.2 581
15.22 580
15.24 622
15.26 631
15.28 622
15.3 620
15.32 595
15.34 609
15.36 607
15.38 554
15.4 593
15.42 571
15.44 609
15.46 621
15.48 608
15.5 586
15.52 591
15.54 601
15.56 606
15.58 584
15.6 607
15.62 599
15.64 625
15.66 585
15.68 597
15.7 622
15.72 568
15.74 611
15.76 610
15.78 585
15.8 585
15.82 587
15.84 606
15.86 592
15.88 633
15.9 634
15.92 596
15.94 607
15.96 642
15.98 609
16 603
16.02 610
16.04 621
16.06 586
16.08 667
16.1 663
16.12 635
16.14 611
16.16 627
16.18 609
16.2 626
16.22 611
16.24 627
16.26 615
16.28 621
16.3 653
16.32 634
16.34 563
16.36 625
16.38 622
16.4 593
16.42 640
16.44 632
16.46 651
16.48 680
16.5 623
16.52 632
16.54 626
16.56 599
16.58 652
16.6 640
16.62 632
16.64 617
16.66 631
16.68 697
16.7 617
16.72 656
16.74 686
16.76 628
16.78 623
16.8 613
16.82 683
16.84 687
16.86 627
16.88 633
16.9 629
16.92 663
16.94 632
16.96 645
16.98 649
17 653
17.02 649
17.04 625
17.06 625
17.08 666
17.1 668
17.12 676
17.14 661
17.16 714
17.18 720
17.2 626
17.22 675
17.24 674
17.26 696
17.28 697
17.3 697
17.32 650
17.34 664
17.36 694
17.38 649
17.4 696
17.42 706
17.44 677
17.46 698
17.48 685
17.5 693
17.52 778
17.54 682
17.56 715
17.58 684
17.6 655
17.62 690
17.64 659
17.66 667
17.68 698
17.7 700
17.72 686
17.74 710
17.76 741
17.78 697
17.8 715
17.82 695
17.84 726
17.86 709
17.88 713
17.9 709
17.92 747
17.94 698
17.96 671
17.98 677
18 747
18.02 725
18.04 705
18.06 674
18.08 716
18.1 742
18.12 722
18.14 718
18.16 715
18.18 753
18.2 735
18.22 729
18.24 740
18.26 753
18.28 693
18.3 769
18.32 725
18.34 732
18.36 699
18.38 735
18.4 718
18.42 743
18.44 753
18.46 801
18.48 735
18.5 738
18.52 744
18.54 785
18.56 793
18.58 768
18.6 750
18.62 768
18.64 815
18.66 751
18.68 786
18.7 821
18.72 832
18.74 786
18.76 774
18.78 758
18.8 796
18.82 778
18.84 794
18.86 758
18.88 755
18.9 765
18.92 825
18.94 800
18.96 818
18.98 803
19 782
19.02 839
19.04 841
19.06 814
19.08 870
19.1 870
19.12 865
19.14 822
19.16 831
19.18 853
19.2 839
19.22 855
19.24 831
19.26 756
19.28 815
19.3 821
19.32 858
19.34 853
19.36 860
19.38 871
19.4 906
19.42 922
19.44 886
19.46 926
19.48 901
19.5 947
19.52 970
19.54 935
19.56 940
19.58 851
19.6 895
19.62 840
19.64 905
19.66 908
19.68 799
19.7 803
19.72 867
19.74 819
19.76 863
19.78 850
19.8 894
19.82 872
19.84 897
19.86 906
19.88 878
19.9 924
19.92 883
19.94 868
19.96 879
19.98 883
20 880