File: xrd-UiO-67/pxrddata/39-11.ASC
3 3102
3.02 2907
3.04 2692
3.06 2691
3.08 2598
3.1 2399
3.12 2414
3.14 2257
3.16 2282
3.18 2308
3.2 2298
3.22 2164
3.24 2175
3.26 2077
3.28 2090
3.3 2082
3.32 2044
3.34 2104
3.36 2020
3.38 1983
3.4 1972
3.42 1952
3.44 1940
3.46 1910
3.48 1805
3.5 1796
3.52 1809
3.54 1795
3.56 1691
3.58 1721
3.6 1720
3.62 1659
3.64 1752
3.66 1756
3.68 1672
3.7 1650
3.72 1645
3.74 1553
3.76 1518
3.78 1610
3.8 1593
3.82 1540
3.84 1584
3.86 1527
3.88 1452
3.9 1549
3.92 1404
3.94 1441
3.96 1417
3.98 1429
4 1461
4.02 1257
4.04 1432
4.06 1368
4.08 1292
4.1 1385
4.12 1324
4.14 1310
4.16 1272
4.18 1267
4.2 1241
4.22 1262
4.24 1201
4.26 1172
4.28 1228
4.3 1204
4.32 1248
4.34 1177
4.36 1199
4.38 1112
4.4 1168
4.42 1205
4.44 1155
4.46 1142
4.48 1116
4.5 1122
4.52 1104
4.54 1074
4.56 1112
4.58 1107
4.6 1058
4.62 1111
4.64 1107
4.66 1048
4.68 1075
4.7 1053
4.72 1026
4.74 1037
4.76 1051
4.78 1013
4.8 986
4.82 1006
4.84 1048
4.86 1006
4.88 947
4.9 922
4.92 951
4.94 941
4.96 965
4.98 918
5 905
5.02 959
5.04 900
5.06 904
5.08 898
5.1 887
5.12 916
5.14 918
5.16 849
5.18 894
5.2 872
5.22 860
5.24 867
5.26 813
5.28 875
5.3 852
5.32 888
5.34 866
5.36 816
5.38 871
5.4 893
5.42 839
5.44 840
5.46 797
5.48 797
5.5 785
5.52 790
5.54 832
5.56 820
5.58 818
5.6 809
5.62 781
5.64 813
5.66 798
5.68 785
5.7 826
5.72 832
5.74 809
5.76 778
5.78 842
5.8 731
5.82 773
5.84 791
5.86 807
5.88 806
5.9 741
5.92 718
5.94 753
5.96 756
5.98 770
6 741
6.02 795
6.04 796
6.06 797
6.08 819
6.1 758
6.12 793
6.14 768
6.16 783
6.18 730
6.2 717
6.22 741
6.24 750
6.26 763
6.28 758
6.3 832
6.32 757
6.34 778
6.36 754
6.38 780
6.4 755
6.42 705
6.44 755
6.46 776
6.48 756
6.5 708
6.52 755
6.54 756
6.56 788
6.58 751
6.6 813
6.62 736
6.64 765
6.66 733
6.68 759
6.7 717
6.72 772
6.74 766
6.76 800
6.78 779
6.8 758
6.82 762
6.84 706
6.86 765
6.88 786
6.9 775
6.92 765
6.94 812
6.96 801
6.98 807
7 800
7.02 812
7.04 815
7.06 792
7.08 784
7.1 811
7.12 793
7.14 785
7.16 811
7.18 838
7.2 814
7.22 854
7.24 826
7.26 809
7.28 834
7.3 817
7.32 846
7.34 843
7.36 893
7.38 861
7.4 857
7.42 901
7.44 894
7.46 877
7.48 908
7.5 858
7.52 923
7.54 944
7.56 996
7.58 949
7.6 955
7.62 969
7.64 993
7.66 990
7.68 998
7.7 1017
7.72 930
7.74 983
7.76 978
7.78 999
7.8 1003
7.82 1088
7.84 1029
7.86 1069
7.88 1083
7.9 1046
7.92 1054
7.94 1036
7.96 1089
7.98 1052
8 1053
8.02 1051
8.04 1091
8.06 1067
8.08 1076
8.1 1052
8.12 1106
8.14 1056
8.16 1050
8.18 1045
8.2 1033
8.22 1006
8.24 1092
8.26 1080
8.28 1093
8.3 1091
8.32 1098
8.34 1067
8.36 1117
8.38 1120
8.4 1059
8.42 1094
8.44 1125
8.46 1136
8.48 1203
8.5 1189
8.52 1124
8.54 1153
8.56 1180
8.58 1246
8.6 1225
8.62 1324
8.64 1317
8.66 1282
8.68 1388
8.7 1419
8.72 1446
8.74 1511
8.76 1522
8.78 1506
8.8 1628
8.82 1784
8.84 1845
8.86 1834
8.88 1984
8.9 2141
8.92 2165
8.94 2170
8.96 2240
8.98 2184
9 2215
9.02 2083
9.04 2127
9.06 1986
9.08 1924
9.1 1851
9.12 1795
9.14 1783
9.16 1749
9.18 1625
9.2 1542
9.22 1521
9.24 1417
9.26 1456
9.28 1385
9.3 1351
9.32 1309
9.34 1338
9.36 1228
9.38 1233
9.4 1137
9.42 1181
9.44 1135
9.46 1107
9.48 1052
9.5 1075
9.52 1040
9.54 1046
9.56 972
9.58 1041
9.6 977
9.62 1012
9.64 999
9.66 991
9.68 1027
9.7 1045
9.72 1094
9.74 1077
9.76 996
9.78 1123
9.8 1073
9.82 1199
9.84 1213
9.86 1268
9.88 1306
9.9 1362
9.92 1318
9.94 1372
9.96 1426
9.98 1365
10 1338
10.02 1305
10.04 1266
10.06 1227
10.08 1201
10.1 1086
10.12 1070
10.14 1007
10.16 1005
10.18 969
10.2 903
10.22 953
10.24 874
10.26 970
10.28 868
10.3 806
10.32 865
10.34 849
10.36 865
10.38 852
10.4 827
10.42 822
10.44 843
10.46 776
10.48 840
10.5 762
10.52 741
10.54 776
10.56 739
10.58 797
10.6 696
10.62 724
10.64 722
10.66 667
10.68 719
10.7 659
10.72 733
10.74 700
10.76 669
10.78 663
10.8 685
10.82 706
10.84 659
10.86 702
10.88 667
10.9 712
10.92 651
10.94 656
10.96 611
10.98 667
11 611
11.02 634
11.04 682
11.06 646
11.08 594
11.1 627
11.12 606
11.14 602
11.16 598
11.18 603
11.2 639
11.22 626
11.24 580
11.26 564
11.28 558
11.3 566
11.32 556
11.34 587
11.36 535
11.38 566
11.4 572
11.42 526
11.44 538
11.46 517
11.48 560
11.5 502
11.52 559
11.54 574
11.56 537
11.58 538
11.6 538
11.62 528
11.64 573
11.66 558
11.68 528
11.7 553
11.72 565
11.74 563
11.76 559
11.78 500
11.8 527
11.82 502
11.84 538
11.86 546
11.88 491
11.9 523
11.92 568
11.94 542
11.96 552
11.98 519
12 547
12.02 516
12.04 530
12.06 535
12.08 523
12.1 516
12.12 529
12.14 498
12.16 571
12.18 507
12.2 554
12.22 493
12.24 541
12.26 531
12.28 531
12.3 563
12.32 521
12.34 555
12.36 551
12.38 541
12.4 593
12.42 604
12.44 573
12.46 587
12.48 641
12.5 641
12.52 659
12.54 739
12.56 689
12.58 823
12.6 874
12.62 885
12.64 854
12.66 812
12.68 779
12.7 801
12.72 741
12.74 706
12.76 707
12.78 662
12.8 628
12.82 570
12.84 592
12.86 582
12.88 559
12.9 569
12.92 562
12.94 598
12.96 568
12.98 544
13 542
13.02 582
13.04 556
13.06 546
13.08 570
13.1 522
13.12 528
13.14 546
13.16 573
13.18 571
13.2 531
13.22 542
13.24 542
13.26 562
13.28 559
13.3 552
13.32 564
13.34 589
13.36 557
13.38 536
13.4 574
13.42 548
13.44 565
13.46 550
13.48 545
13.5 512
13.52 561
13.54 579
13.56 527
13.58 515
13.6 541
13.62 531
13.64 574
13.66 481
13.68 522
13.7 502
13.72 522
13.74 517
13.76 504
13.78 538
13.8 502
13.82 509
13.84 513
13.86 531
13.88 527
13.9 496
13.92 546
13.94 556
13.96 493
13.98 493
14 543
14.02 561
14.04 529
14.06 533
14.08 556
14.1 548
14.12 523
14.14 508
14.16 515
14.18 535
14.2 547
14.22 555
14.24 528
14.26 525
14.28 556
14.3 517
14.32 511
14.34 521
14.36 568
14.38 597
14.4 519
14.42 533
14.44 559
14.46 545
14.48 526
14.5 546
14.52 564
14.54 549
14.56 562
14.58 533
14.6 600
14.62 535
14.64 541
14.66 536
14.68 566
14.7 545
14.72 588
14.74 564
14.76 541
14.78 569
14.8 551
14.82 547
14.84 535
14.86 516
14.88 550
14.9 527
14.92 564
14.94 545
14.96 551
14.98 543
15 556
15.02 556
15.04 549
15.06 589
15.08 601
15.1 529
15.12 560
15.14 605
15.16 580
15.18 575
15.2 556
15.22 543
15.24 591
15.26 595
15.28 548
15.3 563
15.32 586
15.34 554
15.36 595
15.38 570
15.4 544
15.42 563
15.44 607
15.46 596
15.48 564
15.5 595
15.52 590
15.54 561
15.56 594
15.58 604
15.6 555
15.62 568
15.64 546
15.66 532
15.68 589
15.7 534
15.72 607
15.74 578
15.76 585
15.78 596
15.8 601
15.82 567
15.84 557
15.86 599
15.88 602
15.9 579
15.92 568
15.94 561
15.96 575
15.98 548
16 552
16.02 627
16.04 648
16.06 567
16.08 588
16.1 566
16.12 542
16.14 515
16.16 565
16.18 595
16.2 569
16.22 630
16.24 581
16.26 619
16.28 593
16.3 591
16.32 589
16.34 587
16.36 629
16.38 616
16.4 579
16.42 620
16.44 631
16.46 631
16.48 623
16.5 626
16.52 636
16.54 651
16.56 653
16.58 613
16.6 607
16.62 624
16.64 597
16.66 652
16.68 595
16.7 698
16.72 678
16.74 618
16.76 668
16.78 719
16.8 676
16.82 714
16.84 702
16.86 742
16.88 782
16.9 811
16.92 911
16.94 928
16.96 1034
16.98 1149
17 1173
17.02 1118
17.04 1001
17.06 879
17.08 801
17.1 654
17.12 681
17.14 690
17.16 664
17.18 657
17.2 617
17.22 629
17.24 668
17.26 655
17.28 660
17.3 667
17.32 673
17.34 666
17.36 673
17.38 652
17.4 677
17.42 701
17.44 672
17.46 671
17.48 678
17.5 668
17.52 640
17.54 691
17.56 664
17.58 643
17.6 682
17.62 689
17.64 695
17.66 682
17.68 726
17.7 656
17.72 734
17.74 732
17.76 765
17.78 688
17.8 720
17.82 749
17.84 716
17.86 758
17.88 713
17.9 718
17.92 763
17.94 748
17.96 716
17.98 715
18 731
18.02 711
18.04 721
18.06 768
18.08 762
18.1 727
18.12 731
18.14 740
18.16 771
18.18 763
18.2 797
18.22 768
18.24 737
18.26 738
18.28 786
18.3 774
18.32 754
18.34 784
18.36 779
18.38 779
18.4 807
18.42 793
18.44 778
18.46 766
18.48 788
18.5 806
18.52 784
18.54 855
18.56 833
18.58 794
18.6 771
18.62 807
18.64 827
18.66 816
18.68 814
18.7 761
18.72 870
18.74 775
18.76 802
18.78 792
18.8 784
18.82 797
18.84 812
18.86 761
18.88 759
18.9 820
18.92 857
18.94 858
18.96 800
18.98 808
19 814
19.02 809
19.04 830
19.06 808
19.08 848
19.1 870
19.12 842
19.14 822
19.16 874
19.18 829
19.2 826
19.22 817
19.24 824
19.26 837
19.28 809
19.3 831
19.32 829
19.34 823
19.36 879
19.38 827
19.4 834
19.42 820
19.44 832
19.46 869
19.48 890
19.5 896
19.52 829
19.54 855
19.56 918
19.58 884
19.6 869
19.62 892
19.64 869
19.66 937
19.68 929
19.7 902
19.72 950
19.74 890
19.76 937
19.78 937
19.8 915
19.82 894
19.84 976
19.86 974
19.88 1032
19.9 965
19.92 978
19.94 1045
19.96 981
19.98 1019
20 1007