File: xrd-UiO-67/pxrddata/39-16.ASC
3 2651
3.02 2435
3.04 2324
3.06 2285
3.08 2195
3.1 2038
3.12 1973
3.14 1966
3.16 1953
3.18 1937
3.2 1922
3.22 1860
3.24 1809
3.26 1801
3.28 1862
3.3 1776
3.32 1747
3.34 1748
3.36 1734
3.38 1717
3.4 1662
3.42 1694
3.44 1685
3.46 1644
3.48 1578
3.5 1585
3.52 1516
3.54 1508
3.56 1499
3.58 1478
3.6 1477
3.62 1501
3.64 1480
3.66 1392
3.68 1470
3.7 1426
3.72 1371
3.74 1426
3.76 1391
3.78 1322
3.8 1349
3.82 1339
3.84 1251
3.86 1392
3.88 1362
3.9 1331
3.92 1273
3.94 1275
3.96 1365
3.98 1295
4 1318
4.02 1301
4.04 1217
4.06 1223
4.08 1242
4.1 1280
4.12 1215
4.14 1196
4.16 1189
4.18 1192
4.2 1215
4.22 1212
4.24 1221
4.26 1140
4.28 1158
4.3 1138
4.32 1167
4.34 1157
4.36 1130
4.38 1141
4.4 1140
4.42 1149
4.44 1139
4.46 1158
4.48 1185
4.5 1055
4.52 1142
4.54 1139
4.56 1112
4.58 1096
4.6 1074
4.62 1098
4.64 1060
4.66 1114
4.68 1154
4.7 1103
4.72 1045
4.74 1126
4.76 1118
4.78 1149
4.8 1156
4.82 1200
4.84 1157
4.86 1134
4.88 1180
4.9 1224
4.92 1208
4.94 1188
4.96 1167
4.98 1198
5 1189
5.02 1223
5.04 1341
5.06 1307
5.08 1296
5.1 1353
5.12 1401
5.14 1506
5.16 1536
5.18 1613
5.2 1684
5.22 1702
5.24 1842
5.26 1895
5.28 2019
5.3 2188
5.32 2381
5.34 2511
5.36 2835
5.38 3250
5.4 3722
5.42 4143
5.44 3284
5.46 2523
5.48 1974
5.5 1843
5.52 1710
5.54 1577
5.56 1446
5.58 1420
5.6 1350
5.62 1296
5.64 1251
5.66 1310
5.68 1240
5.7 1187
5.72 1174
5.74 1188
5.76 1131
5.78 1080
5.8 1047
5.82 973
5.84 1022
5.86 985
5.88 903
5.9 955
5.92 946
5.94 956
5.96 904
5.98 899
6 850
6.02 905
6.04 858
6.06 885
6.08 902
6.1 886
6.12 874
6.14 845
6.16 867
6.18 863
6.2 920
6.22 850
6.24 827
6.26 807
6.28 847
6.3 826
6.32 796
6.34 862
6.36 804
6.38 847
6.4 833
6.42 818
6.44 825
6.46 786
6.48 788
6.5 800
6.52 783
6.54 777
6.56 795
6.58 784
6.6 784
6.62 788
6.64 774
6.66 754
6.68 762
6.7 785
6.72 788
6.74 716
6.76 728
6.78 748
6.8 780
6.82 727
6.84 709
6.86 698
6.88 757
6.9 739
6.92 725
6.94 721
6.96 753
6.98 703
7 762
7.02 745
7.04 752
7.06 688
7.08 699
7.1 763
7.12 700
7.14 734
7.16 730
7.18 673
7.2 673
7.22 734
7.24 742
7.26 723
7.28 698
7.3 716
7.32 694
7.34 687
7.36 673
7.38 693
7.4 708
7.42 689
7.44 713
7.46 707
7.48 696
7.5 727
7.52 685
7.54 707
7.56 724
7.58 670
7.6 713
7.62 705
7.64 667
7.66 702
7.68 664
7.7 672
7.72 657
7.74 723
7.76 673
7.78 706
7.8 699
7.82 680
7.84 698
7.86 662
7.88 676
7.9 650
7.92 723
7.94 681
7.96 699
7.98 666
8 693
8.02 696
8.04 676
8.06 661
8.08 716
8.1 654
8.12 669
8.14 673
8.16 690
8.18 693
8.2 625
8.22 688
8.24 650
8.26 631
8.28 636
8.3 693
8.32 672
8.34 659
8.36 657
8.38 655
8.4 656
8.42 617
8.44 647
8.46 672
8.48 633
8.5 648
8.52 635
8.54 581
8.56 628
8.58 630
8.6 653
8.62 659
8.64 625
8.66 645
8.68 669
8.7 618
8.72 678
8.74 636
8.76 635
8.78 659
8.8 651
8.82 656
8.84 690
8.86 636
8.88 662
8.9 609
8.92 655
8.94 679
8.96 743
8.98 699
9 670
9.02 685
9.04 704
9.06 758
9.08 706
9.1 769
9.12 803
9.14 832
9.16 803
9.18 829
9.2 838
9.22 885
9.24 921
9.26 1002
9.28 1058
9.3 1241
9.32 1370
9.34 1467
9.36 1300
9.38 1039
9.4 873
9.42 826
9.44 744
9.46 742
9.48 689
9.5 707
9.52 720
9.54 688
9.56 672
9.58 641
9.6 644
9.62 689
9.64 634
9.66 644
9.68 686
9.7 618
9.72 648
9.74 667
9.76 650
9.78 619
9.8 617
9.82 657
9.84 666
9.86 636
9.88 632
9.9 601
9.92 586
9.94 639
9.96 644
9.98 602
10 632
10.02 592
10.04 618
10.06 612
10.08 622
10.1 615
10.12 579
10.14 643
10.16 578
10.18 602
10.2 670
10.22 574
10.24 636
10.26 630
10.28 667
10.3 604
10.32 581
10.34 617
10.36 647
10.38 655
10.4 630
10.42 627
10.44 576
10.46 630
10.48 646
10.5 629
10.52 635
10.54 637
10.56 651
10.58 633
10.6 658
10.62 665
10.64 717
10.66 727
10.68 776
10.7 749
10.72 797
10.74 855
10.76 926
10.78 939
10.8 898
10.82 900
10.84 837
10.86 720
10.88 720
10.9 745
10.92 683
10.94 675
10.96 679
10.98 625
11 680
11.02 650
11.04 631
11.06 633
11.08 623
11.1 563
11.12 618
11.14 640
11.16 606
11.18 577
11.2 608
11.22 578
11.24 571
11.26 562
11.28 587
11.3 560
11.32 584
11.34 599
11.36 624
11.38 604
11.4 633
11.42 645
11.44 626
11.46 636
11.48 601
11.5 551
11.52 620
11.54 577
11.56 615
11.58 582
11.6 633
11.62 561
11.64 593
11.66 548
11.68 564
11.7 583
11.72 624
11.74 559
11.76 557
11.78 575
11.8 574
11.82 612
11.84 639
11.86 558
11.88 551
11.9 635
11.92 580
11.94 587
11.96 622
11.98 580
12 630
12.02 564
12.04 589
12.06 613
12.08 632
12.1 600
12.12 570
12.14 628
12.16 647
12.18 636
12.2 643
12.22 712
12.24 721
12.26 693
12.28 708
12.3 716
12.32 657
12.34 681
12.36 630
12.38 615
12.4 660
12.42 599
12.44 581
12.46 576
12.48 613
12.5 582
12.52 568
12.54 562
12.56 558
12.58 573
12.6 586
12.62 590
12.64 604
12.66 591
12.68 611
12.7 579
12.72 596
12.74 684
12.76 570
12.78 617
12.8 562
12.82 588
12.84 595
12.86 617
12.88 648
12.9 562
12.92 580
12.94 629
12.96 575
12.98 608
13 630
13.02 607
13.04 642
13.06 619
13.08 595
13.1 621
13.12 603
13.14 606
13.16 634
13.18 626
13.2 606
13.22 606
13.24 585
13.26 642
13.28 656
13.3 672
13.32 611
13.34 623
13.36 602
13.38 608
13.4 593
13.42 620
13.44 612
13.46 597
13.48 608
13.5 610
13.52 618
13.54 581
13.56 585
13.58 605
13.6 631
13.62 582
13.64 607
13.66 642
13.68 635
13.7 641
13.72 631
13.74 586
13.76 590
13.78 604
13.8 601
13.82 647
13.84 622
13.86 621
13.88 587
13.9 616
13.92 637
13.94 631
13.96 600
13.98 623
14 629
14.02 620
14.04 607
14.06 611
14.08 596
14.1 604
14.12 657
14.14 606
14.16 616
14.18 647
14.2 710
14.22 696
14.24 682
14.26 651
14.28 608
14.3 658
14.32 625
14.34 654
14.36 644
14.38 659
14.4 596
14.42 604
14.44 671
14.46 626
14.48 605
14.5 596
14.52 618
14.54 623
14.56 633
14.58 570
14.6 665
14.62 651
14.64 615
14.66 583
14.68 596
14.7 664
14.72 638
14.74 609
14.76 643
14.78 624
14.8 635
14.82 670
14.84 646
14.86 676
14.88 642
14.9 644
14.92 657
14.94 642
14.96 636
14.98 677
15 613
15.02 585
15.04 613
15.06 613
15.08 675
15.1 659
15.12 651
15.14 689
15.16 662
15.18 628
15.2 642
15.22 625
15.24 628
15.26 658
15.28 697
15.3 667
15.32 636
15.34 698
15.36 674
15.38 645
15.4 701
15.42 662
15.44 629
15.46 638
15.48 619
15.5 680
15.52 641
15.54 697
15.56 636
15.58 659
15.6 658
15.62 668
15.64 666
15.66 681
15.68 672
15.7 673
15.72 710
15.74 694
15.76 648
15.78 686
15.8 701
15.82 689
15.84 695
15.86 707
15.88 703
15.9 674
15.92 677
15.94 696
15.96 695
15.98 703
16 722
16.02 719
16.04 700
16.06 732
16.08 696
16.1 689
16.12 708
16.14 680
16.16 759
16.18 752
16.2 722
16.22 696
16.24 749
16.26 724
16.28 733
16.3 704
16.32 720
16.34 698
16.36 758
16.38 730
16.4 752
16.42 726
16.44 785
16.46 734
16.48 776
16.5 827
16.52 732
16.54 760
16.56 783
16.58 742
16.6 835
16.62 781
16.64 781
16.66 814
16.68 784
16.7 833
16.72 817
16.74 781
16.76 841
16.78 846
16.8 888
16.82 895
16.84 949
16.86 952
16.88 1003
16.9 1027
16.92 1148
16.94 1195
16.96 1359
16.98 1508
17 1547
17.02 1408
17.04 1239
17.06 1109
17.08 972
17.1 921
17.12 901
17.14 856
17.16 856
17.18 848
17.2 884
17.22 823
17.24 844
17.26 861
17.28 799
17.3 824
17.32 848
17.34 850
17.36 836
17.38 887
17.4 851
17.42 852
17.44 881
17.46 877
17.48 853
17.5 855
17.52 869
17.54 819
17.56 826
17.58 826
17.6 835
17.62 832
17.64 875
17.66 810
17.68 876
17.7 891
17.72 835
17.74 859
17.76 842
17.78 846
17.8 802
17.82 903
17.84 854
17.86 840
17.88 825
17.9 885
17.92 891
17.94 894
17.96 869
17.98 868
18 864
18.02 855
18.04 861
18.06 855
18.08 873
18.1 839
18.12 863
18.14 864
18.16 909
18.18 876
18.2 877
18.22 916
18.24 871
18.26 877
18.28 940
18.3 962
18.32 921
18.34 952
18.36 901
18.38 921
18.4 929
18.42 910
18.44 952
18.46 956
18.48 920
18.5 913
18.52 923
18.54 930
18.56 944
18.58 1001
18.6 924
18.62 993
18.64 964
18.66 964
18.68 976
18.7 1023
18.72 934
18.74 981
18.76 948
18.78 1017
18.8 978
18.82 990
18.84 986
18.86 987
18.88 1006
18.9 1010
18.92 1009
18.94 973
18.96 981
18.98 1021
19 982
19.02 1030
19.04 974
19.06 965
19.08 1021
19.1 985
19.12 991
19.14 986
19.16 1021
19.18 992
19.2 987
19.22 1027
19.24 1014
19.26 1031
19.28 995
19.3 1051
19.32 1100
19.34 1057
19.36 1094
19.38 1179
19.4 1151
19.42 1139
19.44 1150
19.46 1225
19.48 1115
19.5 1158
19.52 1147
19.54 1148
19.56 1144
19.58 1037
19.6 1055
19.62 1113
19.64 1168
19.66 1048
19.68 1083
19.7 1043
19.72 1115
19.74 1082
19.76 1070
19.78 1112
19.8 1087
19.82 1104
19.84 1082
19.86 1146
19.88 1081
19.9 1124
19.92 1077
19.94 1123
19.96 1041
19.98 1059
20 1096