File: xrd-UiO-67/pxrddata/39-21.ASC
3 3708
3.02 3581
3.04 3375
3.06 3221
3.08 2999
3.1 2940
3.12 2847
3.14 2799
3.16 2774
3.18 2670
3.2 2771
3.22 2601
3.24 2621
3.26 2589
3.28 2464
3.3 2534
3.32 2445
3.34 2410
3.36 2403
3.38 2394
3.4 2297
3.42 2298
3.44 2232
3.46 2190
3.48 2098
3.5 2114
3.52 2073
3.54 1997
3.56 2085
3.58 2067
3.6 1985
3.62 2031
3.64 1955
3.66 1986
3.68 1986
3.7 1994
3.72 1907
3.74 1896
3.76 1851
3.78 1858
3.8 1798
3.82 1723
3.84 1682
3.86 1685
3.88 1755
3.9 1686
3.92 1623
3.94 1654
3.96 1637
3.98 1576
4 1543
4.02 1567
4.04 1515
4.06 1451
4.08 1454
4.1 1531
4.12 1483
4.14 1480
4.16 1390
4.18 1436
4.2 1416
4.22 1382
4.24 1435
4.26 1351
4.28 1401
4.3 1352
4.32 1365
4.34 1308
4.36 1322
4.38 1315
4.4 1383
4.42 1330
4.44 1252
4.46 1203
4.48 1244
4.5 1262
4.52 1232
4.54 1217
4.56 1175
4.58 1212
4.6 1214
4.62 1213
4.64 1215
4.66 1226
4.68 1177
4.7 1214
4.72 1195
4.74 1136
4.76 1121
4.78 1155
4.8 1186
4.82 1210
4.84 1141
4.86 1132
4.88 1176
4.9 1141
4.92 1192
4.94 1220
4.96 1176
4.98 1166
5 1182
5.02 1191
5.04 1136
5.06 1192
5.08 1207
5.1 1231
5.12 1235
5.14 1324
5.16 1255
5.18 1324
5.2 1297
5.22 1381
5.24 1360
5.26 1455
5.28 1521
5.3 1582
5.32 1624
5.34 1766
5.36 1903
5.38 2096
5.4 2332
5.42 2528
5.44 2434
5.46 2099
5.48 1674
5.5 1534
5.52 1362
5.54 1353
5.56 1221
5.58 1192
5.6 1223
5.62 1140
5.64 1166
5.66 1103
5.68 1099
5.7 1079
5.72 1017
5.74 1002
5.76 972
5.78 969
5.8 1060
5.82 985
5.84 940
5.86 910
5.88 985
5.9 912
5.92 919
5.94 922
5.96 912
5.98 875
6 859
6.02 877
6.04 917
6.06 895
6.08 831
6.1 895
6.12 872
6.14 834
6.16 816
6.18 860
6.2 838
6.22 826
6.24 799
6.26 833
6.28 789
6.3 789
6.32 832
6.34 856
6.36 849
6.38 790
6.4 758
6.42 849
6.44 786
6.46 828
6.48 807
6.5 838
6.52 832
6.54 820
6.56 812
6.58 814
6.6 794
6.62 816
6.64 806
6.66 772
6.68 796
6.7 824
6.72 740
6.74 779
6.76 762
6.78 793
6.8 780
6.82 751
6.84 791
6.86 838
6.88 735
6.9 763
6.92 808
6.94 734
6.96 768
6.98 794
7 793
7.02 783
7.04 775
7.06 785
7.08 770
7.1 789
7.12 757
7.14 748
7.16 774
7.18 752
7.2 780
7.22 748
7.24 754
7.26 776
7.28 720
7.3 735
7.32 734
7.34 741
7.36 706
7.38 729
7.4 734
7.42 729
7.44 736
7.46 765
7.48 720
7.5 695
7.52 714
7.54 707
7.56 701
7.58 722
7.6 745
7.62 715
7.64 727
7.66 722
7.68 710
7.7 726
7.72 768
7.74 719
7.76 763
7.78 713
7.8 734
7.82 733
7.84 754
7.86 769
7.88 706
7.9 721
7.92 725
7.94 714
7.96 706
7.98 710
8 737
8.02 689
8.04 692
8.06 741
8.08 714
8.1 693
8.12 678
8.14 688
8.16 718
8.18 699
8.2 657
8.22 711
8.24 715
8.26 664
8.28 699
8.3 687
8.32 709
8.34 704
8.36 711
8.38 699
8.4 649
8.42 664
8.44 744
8.46 665
8.48 662
8.5 673
8.52 701
8.54 707
8.56 649
8.58 718
8.6 701
8.62 689
8.64 687
8.66 670
8.68 689
8.7 691
8.72 694
8.74 668
8.76 677
8.78 703
8.8 667
8.82 686
8.84 679
8.86 757
8.88 699
8.9 703
8.92 726
8.94 746
8.96 708
8.98 775
9 779
9.02 733
9.04 761
9.06 737
9.08 691
9.1 731
9.12 771
9.14 745
9.16 772
9.18 725
9.2 755
9.22 787
9.24 802
9.26 866
9.28 891
9.3 857
9.32 984
9.34 1090
9.36 1004
9.38 917
9.4 812
9.42 806
9.44 740
9.46 706
9.48 722
9.5 704
9.52 692
9.54 669
9.56 706
9.58 687
9.6 697
9.62 698
9.64 706
9.66 697
9.68 691
9.7 660
9.72 642
9.74 658
9.76 649
9.78 636
9.8 675
9.82 702
9.84 656
9.86 682
9.88 716
9.9 630
9.92 685
9.94 645
9.96 706
9.98 681
10 740
10.02 692
10.04 672
10.06 640
10.08 626
10.1 650
10.12 641
10.14 657
10.16 627
10.18 631
10.2 657
10.22 671
10.24 641
10.26 654
10.28 640
10.3 688
10.32 647
10.34 653
10.36 653
10.38 670
10.4 616
10.42 652
10.44 651
10.46 686
10.48 676
10.5 642
10.52 635
10.54 656
10.56 660
10.58 595
10.6 677
10.62 634
10.64 656
10.66 699
10.68 733
10.7 692
10.72 682
10.74 737
10.76 797
10.78 795
10.8 786
10.82 796
10.84 720
10.86 713
10.88 707
10.9 649
10.92 715
10.94 670
10.96 675
10.98 618
11 668
11.02 626
11.04 631
11.06 662
11.08 682
11.1 625
11.12 648
11.14 651
11.16 668
11.18 636
11.2 601
11.22 630
11.24 628
11.26 618
11.28 576
11.3 606
11.32 585
11.34 567
11.36 573
11.38 617
11.4 606
11.42 655
11.44 599
11.46 604
11.48 641
11.5 580
11.52 605
11.54 621
11.56 604
11.58 607
11.6 613
11.62 608
11.64 601
11.66 652
11.68 668
11.7 631
11.72 600
11.74 600
11.76 577
11.78 572
11.8 637
11.82 626
11.84 617
11.86 598
11.88 644
11.9 627
11.92 610
11.94 587
11.96 639
11.98 605
12 607
12.02 613
12.04 608
12.06 636
12.08 652
12.1 643
12.12 663
12.14 570
12.16 587
12.18 619
12.2 651
12.22 664
12.24 646
12.26 662
12.28 624
12.3 630
12.32 613
12.34 619
12.36 628
12.38 646
12.4 633
12.42 617
12.44 609
12.46 645
12.48 650
12.5 646
12.52 647
12.54 633
12.56 628
12.58 618
12.6 594
12.62 655
12.64 626
12.66 642
12.68 646
12.7 652
12.72 649
12.74 670
12.76 650
12.78 658
12.8 622
12.82 641
12.84 644
12.86 607
12.88 587
12.9 630
12.92 659
12.94 639
12.96 653
12.98 615
13 622
13.02 639
13.04 633
13.06 651
13.08 650
13.1 671
13.12 697
13.14 633
13.16 666
13.18 652
13.2 656
13.22 658
13.24 700
13.26 654
13.28 658
13.3 700
13.32 675
13.34 645
13.36 695
13.38 655
13.4 710
13.42 670
13.44 682
13.46 675
13.48 672
13.5 640
13.52 661
13.54 669
13.56 688
13.58 675
13.6 723
13.62 632
13.64 707
13.66 642
13.68 692
13.7 666
13.72 688
13.74 643
13.76 684
13.78 670
13.8 640
13.82 627
13.84 670
13.86 636
13.88 710
13.9 673
13.92 645
13.94 704
13.96 676
13.98 705
14 701
14.02 709
14.04 665
14.06 710
14.08 682
14.1 709
14.12 680
14.14 692
14.16 692
14.18 671
14.2 726
14.22 714
14.24 695
14.26 693
14.28 752
14.3 740
14.32 693
14.34 721
14.36 719
14.38 755
14.4 725
14.42 712
14.44 706
14.46 666
14.48 682
14.5 729
14.52 789
14.54 677
14.56 699
14.58 730
14.6 659
14.62 686
14.64 706
14.66 753
14.68 753
14.7 689
14.72 719
14.74 738
14.76 702
14.78 732
14.8 666
14.82 744
14.84 717
14.86 681
14.88 687
14.9 695
14.92 739
14.94 704
14.96 719
14.98 750
15 699
15.02 729
15.04 722
15.06 773
15.08 763
15.1 728
15.12 707
15.14 692
15.16 744
15.18 760
15.2 764
15.22 768
15.24 794
15.26 757
15.28 715
15.3 745
15.32 801
15.34 726
15.36 754
15.38 753
15.4 742
15.42 804
15.44 765
15.46 749
15.48 793
15.5 777
15.52 762
15.54 718
15.56 751
15.58 758
15.6 758
15.62 817
15.64 780
15.66 782
15.68 797
15.7 782
15.72 760
15.74 783
15.76 833
15.78 796
15.8 779
15.82 785
15.84 795
15.86 834
15.88 862
15.9 834
15.92 800
15.94 785
15.96 754
15.98 825
16 818
16.02 792
16.04 783
16.06 839
16.08 864
16.1 843
16.12 816
16.14 846
16.16 818
16.18 800
16.2 851
16.22 860
16.24 886
16.26 799
16.28 853
16.3 793
16.32 829
16.34 843
16.36 887
16.38 894
16.4 841
16.42 886
16.44 889
16.46 850
16.48 865
16.5 861
16.52 847
16.54 880
16.56 896
16.58 901
16.6 932
16.62 913
16.64 892
16.66 926
16.68 911
16.7 879
16.72 878
16.74 919
16.76 914
16.78 955
16.8 955
16.82 1021
16.84 1002
16.86 1025
16.88 1054
16.9 1070
16.92 1130
16.94 1217
16.96 1332
16.98 1342
17 1390
17.02 1387
17.04 1332
17.06 1121
17.08 1082
17.1 1009
17.12 981
17.14 937
17.16 963
17.18 959
17.2 988
17.22 920
17.24 966
17.26 976
17.28 954
17.3 971
17.32 973
17.34 977
17.36 981
17.38 979
17.4 946
17.42 979
17.44 959
17.46 1048
17.48 981
17.5 1000
17.52 961
17.54 1011
17.56 1028
17.58 1015
17.6 1053
17.62 1064
17.64 1012
17.66 1001
17.68 1027
17.7 1015
17.72 1036
17.74 1048
17.76 1043
17.78 997
17.8 951
17.82 1034
17.84 1060
17.86 1026
17.88 1044
17.9 1017
17.92 1040
17.94 1086
17.96 1070
17.98 1029
18 1061
18.02 993
18.04 1056
18.06 1056
18.08 1052
18.1 1031
18.12 1078
18.14 1074
18.16 1089
18.18 1076
18.2 1117
18.22 1102
18.24 1050
18.26 1094
18.28 1077
18.3 1061
18.32 1153
18.34 1123
18.36 1076
18.38 1130
18.4 1167
18.42 1204
18.44 1141
18.46 1156
18.48 1143
18.5 1100
18.52 1110
18.54 1032
18.56 1117
18.58 1187
18.6 1135
18.62 1206
18.64 1113
18.66 1163
18.68 1163
18.7 1187
18.72 1204
18.74 1212
18.76 1184
18.78 1183
18.8 1241
18.82 1201
18.84 1194
18.86 1198
18.88 1267
18.9 1182
18.92 1245
18.94 1218
18.96 1201
18.98 1250
19 1228
19.02 1229
19.04 1258
19.06 1277
19.08 1185
19.1 1243
19.12 1215
19.14 1223
19.16 1250
19.18 1234
19.2 1227
19.22 1268
19.24 1265
19.26 1353
19.28 1256
19.3 1285
19.32 1258
19.34 1300
19.36 1268
19.38 1317
19.4 1326
19.42 1325
19.44 1391
19.46 1371
19.48 1377
19.5 1302
19.52 1360
19.54 1310
19.56 1335
19.58 1359
19.6 1353
19.62 1288
19.64 1331
19.66 1370
19.68 1339
19.7 1330
19.72 1398
19.74 1317
19.76 1301
19.78 1267
19.8 1324
19.82 1324
19.84 1372
19.86 1334
19.88 1269
19.9 1337
19.92 1371
19.94 1369
19.96 1362
19.98 1462
20 1417