File: xrd-UiO-67/pxrddata/39-2.ASC
3 2763
3.02 2731
3.04 2557
3.06 2460
3.08 2376
3.1 2297
3.12 2222
3.14 2153
3.16 2250
3.18 2128
3.2 2127
3.22 2150
3.24 2062
3.26 2123
3.28 2126
3.3 2150
3.32 2085
3.34 2118
3.36 2075
3.38 2053
3.4 2061
3.42 1997
3.44 1992
3.46 2044
3.48 2073
3.5 2031
3.52 2055
3.54 1991
3.56 1999
3.58 2037
3.6 2013
3.62 2008
3.64 1976
3.66 1953
3.68 1953
3.7 1888
3.72 1997
3.74 2003
3.76 1970
3.78 1984
3.8 1954
3.82 2018
3.84 1996
3.86 1939
3.88 2008
3.9 2020
3.92 1959
3.94 1963
3.96 2052
3.98 2016
4 1925
4.02 1974
4.04 1991
4.06 2025
4.08 2010
4.1 1945
4.12 1984
4.14 1941
4.16 2012
4.18 1992
4.2 1986
4.22 2061
4.24 1979
4.26 2009
4.28 2037
4.3 2127
4.32 2066
4.34 2075
4.36 2050
4.38 2042
4.4 2048
4.42 2082
4.44 2057
4.46 2037
4.48 2067
4.5 2021
4.52 2078
4.54 2088
4.56 2145
4.58 2157
4.6 2134
4.62 2093
4.64 2149
4.66 2103
4.68 2139
4.7 2106
4.72 2170
4.74 2183
4.76 2149
4.78 2121
4.8 2129
4.82 2178
4.84 2180
4.86 2101
4.88 2115
4.9 2108
4.92 2174
4.94 2165
4.96 2178
4.98 2146
5 2201
5.02 2223
5.04 2135
5.06 2205
5.08 2214
5.1 2212
5.12 2255
5.14 2217
5.16 2251
5.18 2282
5.2 2293
5.22 2391
5.24 2360
5.26 2432
5.28 2474
5.3 2420
5.32 2511
5.34 2575
5.36 2734
5.38 2939
5.4 3052
5.42 3098
5.44 2773
5.46 2351
5.48 2229
5.5 2148
5.52 1981
5.54 2022
5.56 1890
5.58 1885
5.6 1833
5.62 1836
5.64 1825
5.66 1790
5.68 1811
5.7 1759
5.72 1651
5.74 1717
5.76 1635
5.78 1617
5.8 1661
5.82 1664
5.84 1631
5.86 1635
5.88 1564
5.9 1556
5.92 1540
5.94 1529
5.96 1478
5.98 1476
6 1538
6.02 1398
6.04 1439
6.06 1478
6.08 1409
6.1 1448
6.12 1434
6.14 1379
6.16 1352
6.18 1391
6.2 1303
6.22 1372
6.24 1289
6.26 1323
6.28 1367
6.3 1261
6.32 1199
6.34 1250
6.36 1290
6.38 1255
6.4 1208
6.42 1285
6.44 1231
6.46 1202
6.48 1172
6.5 1246
6.52 1255
6.54 1200
6.56 1220
6.58 1162
6.6 1161
6.62 1139
6.64 1177
6.66 1184
6.68 1118
6.7 1242
6.72 1129
6.74 1125
6.76 1122
6.78 1161
6.8 1121
6.82 1073
6.84 1120
6.86 1108
6.88 1145
6.9 1120
6.92 1031
6.94 1053
6.96 1116
6.98 1072
7 1125
7.02 1051
7.04 1052
7.06 1074
7.08 973
7.1 1009
7.12 1040
7.14 1085
7.16 1014
7.18 1049
7.2 1014
7.22 1059
7.24 1019
7.26 1000
7.28 1024
7.3 1072
7.32 1039
7.34 996
7.36 1011
7.38 983
7.4 1069
7.42 1008
7.44 989
7.46 1070
7.48 1039
7.5 993
7.52 998
7.54 1005
7.56 1020
7.58 1052
7.6 1046
7.62 1049
7.64 998
7.66 1019
7.68 1119
7.7 1000
7.72 1029
7.74 1016
7.76 1060
7.78 1041
7.8 1049
7.82 972
7.84 959
7.86 1013
7.88 1025
7.9 976
7.92 1002
7.94 1003
7.96 980
7.98 950
8 907
8.02 974
8.04 958
8.06 960
8.08 960
8.1 894
8.12 973
8.14 915
8.16 922
8.18 898
8.2 939
8.22 906
8.24 905
8.26 914
8.28 937
8.3 910
8.32 902
8.34 925
8.36 899
8.38 842
8.4 887
8.42 898
8.44 896
8.46 887
8.48 868
8.5 915
8.52 927
8.54 888
8.56 870
8.58 864
8.6 864
8.62 911
8.64 844
8.66 838
8.68 935
8.7 895
8.72 869
8.74 868
8.76 864
8.78 887
8.8 855
8.82 827
8.84 937
8.86 890
8.88 928
8.9 908
8.92 933
8.94 870
8.96 921
8.98 902
9 901
9.02 888
9.04 841
9.06 893
9.08 883
9.1 927
9.12 932
9.14 863
9.16 877
9.18 939
9.2 914
9.22 933
9.24 944
9.26 994
9.28 982
9.3 1035
9.32 1154
9.34 1122
9.36 1061
9.38 969
9.4 854
9.42 862
9.44 887
9.46 857
9.48 841
9.5 817
9.52 838
9.54 831
9.56 814
9.58 774
9.6 795
9.62 760
9.64 815
9.66 768
9.68 751
9.7 784
9.72 802
9.74 807
9.76 792
9.78 807
9.8 768
9.82 770
9.84 777
9.86 726
9.88 742
9.9 784
9.92 780
9.94 701
9.96 749
9.98 748
10 724
10.02 739
10.04 744
10.06 768
10.08 777
10.1 727
10.12 747
10.14 752
10.16 777
10.18 740
10.2 737
10.22 732
10.24 714
10.26 739
10.28 738
10.3 761
10.32 697
10.34 716
10.36 763
10.38 775
10.4 686
10.42 714
10.44 745
10.46 772
10.48 783
10.5 742
10.52 751
10.54 788
10.56 792
10.58 804
10.6 788
10.62 769
10.64 770
10.66 794
10.68 801
10.7 758
10.72 764
10.74 814
10.76 877
10.78 900
10.8 859
10.82 839
10.84 794
10.86 789
10.88 726
10.9 769
10.92 769
10.94 722
10.96 667
10.98 694
11 712
11.02 726
11.04 684
11.06 663
11.08 644
11.1 719
11.12 698
11.14 723
11.16 683
11.18 695
11.2 692
11.22 708
11.24 657
11.26 638
11.28 669
11.3 688
11.32 691
11.34 639
11.36 696
11.38 675
11.4 664
11.42 686
11.44 644
11.46 682
11.48 631
11.5 644
11.52 667
11.54 628
11.56 699
11.58 639
11.6 693
11.62 701
11.64 634
11.66 698
11.68 693
11.7 706
11.72 665
11.74 687
11.76 681
11.78 643
11.8 682
11.82 681
11.84 635
11.86 680
11.88 672
11.9 669
11.92 668
11.94 629
11.96 656
11.98 645
12 614
12.02 660
12.04 659
12.06 665
12.08 660
12.1 648
12.12 645
12.14 636
12.16 642
12.18 697
12.2 693
12.22 704
12.24 672
12.26 737
12.28 778
12.3 743
12.32 730
12.34 775
12.36 773
12.38 752
12.4 721
12.42 726
12.44 701
12.46 672
12.48 678
12.5 676
12.52 701
12.54 711
12.56 689
12.58 695
12.6 673
12.62 693
12.64 685
12.66 660
12.68 712
12.7 690
12.72 679
12.74 647
12.76 684
12.78 660
12.8 649
12.82 655
12.84 678
12.86 608
12.88 677
12.9 635
12.92 653
12.94 632
12.96 695
12.98 624
13 683
13.02 681
13.04 670
13.06 674
13.08 655
13.1 632
13.12 627
13.14 633
13.16 679
13.18 701
13.2 692
13.22 694
13.24 676
13.26 716
13.28 622
13.3 668
13.32 664
13.34 654
13.36 685
13.38 683
13.4 656
13.42 688
13.44 693
13.46 642
13.48 693
13.5 665
13.52 659
13.54 649
13.56 659
13.58 657
13.6 685
13.62 677
13.64 628
13.66 659
13.68 618
13.7 614
13.72 647
13.74 610
13.76 680
13.78 669
13.8 660
13.82 610
13.84 686
13.86 663
13.88 636
13.9 652
13.92 623
13.94 635
13.96 589
13.98 650
14 637
14.02 641
14.04 674
14.06 671
14.08 644
14.1 674
14.12 669
14.14 672
14.16 691
14.18 693
14.2 677
14.22 688
14.24 617
14.26 672
14.28 640
14.3 629
14.32 661
14.34 630
14.36 629
14.38 635
14.4 670
14.42 672
14.44 611
14.46 648
14.48 650
14.5 612
14.52 604
14.54 620
14.56 651
14.58 633
14.6 581
14.62 652
14.64 632
14.66 693
14.68 652
14.7 634
14.72 580
14.74 624
14.76 683
14.78 610
14.8 639
14.82 655
14.84 598
14.86 614
14.88 652
14.9 603
14.92 634
14.94 667
14.96 555
14.98 654
15 629
15.02 635
15.04 616
15.06 617
15.08 615
15.1 663
15.12 613
15.14 667
15.16 646
15.18 655
15.2 653
15.22 632
15.24 616
15.26 624
15.28 623
15.3 659
15.32 690
15.34 646
15.36 636
15.38 640
15.4 663
15.42 658
15.44 646
15.46 638
15.48 652
15.5 646
15.52 609
15.54 653
15.56 667
15.58 644
15.6 649
15.62 673
15.64 670
15.66 661
15.68 613
15.7 660
15.72 642
15.74 641
15.76 611
15.78 600
15.8 625
15.82 635
15.84 648
15.86 654
15.88 634
15.9 690
15.92 674
15.94 668
15.96 703
15.98 638
16 656
16.02 650
16.04 675
16.06 642
16.08 671
16.1 660
16.12 664
16.14 683
16.16 678
16.18 635
16.2 622
16.22 657
16.24 703
16.26 655
16.28 666
16.3 679
16.32 660
16.34 693
16.36 674
16.38 641
16.4 686
16.42 668
16.44 718
16.46 694
16.48 708
16.5 684
16.52 693
16.54 678
16.56 700
16.58 687
16.6 716
16.62 687
16.64 711
16.66 669
16.68 697
16.7 732
16.72 664
16.74 685
16.76 691
16.78 639
16.8 717
16.82 717
16.84 708
16.86 673
16.88 685
16.9 710
16.92 770
16.94 663
16.96 701
16.98 758
17 743
17.02 700
17.04 705
17.06 721
17.08 755
17.1 692
17.12 725
17.14 669
17.16 729
17.18 684
17.2 707
17.22 743
17.24 721
17.26 693
17.28 770
17.3 714
17.32 747
17.34 746
17.36 766
17.38 717
17.4 733
17.42 743
17.44 750
17.46 748
17.48 743
17.5 758
17.52 743
17.54 712
17.56 744
17.58 789
17.6 745
17.62 701
17.64 731
17.66 727
17.68 754
17.7 767
17.72 732
17.74 737
17.76 714
17.78 780
17.8 755
17.82 744
17.84 764
17.86 798
17.88 802
17.9 772
17.92 770
17.94 790
17.96 768
17.98 750
18 783
18.02 792
18.04 793
18.06 810
18.08 752
18.1 769
18.12 806
18.14 806
18.16 796
18.18 827
18.2 739
18.22 734
18.24 759
18.26 821
18.28 768
18.3 825
18.32 757
18.34 800
18.36 809
18.38 717
18.4 809
18.42 780
18.44 806
18.46 805
18.48 787
18.5 837
18.52 811
18.54 759
18.56 820
18.58 828
18.6 825
18.62 818
18.64 857
18.66 817
18.68 847
18.7 871
18.72 795
18.74 864
18.76 794
18.78 824
18.8 790
18.82 848
18.84 842
18.86 842
18.88 809
18.9 833
18.92 903
18.94 817
18.96 838
18.98 813
19 829
19.02 844
19.04 898
19.06 879
19.08 871
19.1 823
19.12 816
19.14 842
19.16 806
19.18 871
19.2 823
19.22 865
19.24 856
19.26 863
19.28 846
19.3 857
19.32 868
19.34 852
19.36 855
19.38 891
19.4 874
19.42 917
19.44 866
19.46 933
19.48 923
19.5 962
19.52 927
19.54 935
19.56 973
19.58 908
19.6 908
19.62 933
19.64 953
19.66 867
19.68 894
19.7 901
19.72 887
19.74 904
19.76 948
19.78 894
19.8 941
19.82 909
19.84 930
19.86 918
19.88 943
19.9 894
19.92 866
19.94 927
19.96 952
19.98 897
20 956