File: xrd-UiO-67/pxrddata/39-23.ASC
3 2759
3.02 2520
3.04 2350
3.06 2167
3.08 2168
3.1 2014
3.12 1993
3.14 1902
3.16 1960
3.18 1828
3.2 1775
3.22 1854
3.24 1775
3.26 1799
3.28 1784
3.3 1800
3.32 1649
3.34 1684
3.36 1645
3.38 1572
3.4 1663
3.42 1656
3.44 1632
3.46 1605
3.48 1573
3.5 1609
3.52 1504
3.54 1501
3.56 1465
3.58 1481
3.6 1430
3.62 1507
3.64 1459
3.66 1404
3.68 1519
3.7 1407
3.72 1416
3.74 1395
3.76 1403
3.78 1367
3.8 1342
3.82 1343
3.84 1332
3.86 1376
3.88 1323
3.9 1305
3.92 1293
3.94 1262
3.96 1254
3.98 1287
4 1195
4.02 1318
4.04 1242
4.06 1261
4.08 1235
4.1 1216
4.12 1210
4.14 1235
4.16 1217
4.18 1123
4.2 1159
4.22 1110
4.24 1149
4.26 1095
4.28 1176
4.3 1163
4.32 1099
4.34 1149
4.36 1076
4.38 1074
4.4 1070
4.42 1037
4.44 1067
4.46 1109
4.48 1064
4.5 1054
4.52 1078
4.54 1020
4.56 1056
4.58 1010
4.6 995
4.62 1042
4.64 1004
4.66 971
4.68 1012
4.7 1059
4.72 950
4.74 988
4.76 972
4.78 968
4.8 946
4.82 949
4.84 975
4.86 912
4.88 975
4.9 962
4.92 927
4.94 880
4.96 941
4.98 883
5 893
5.02 936
5.04 898
5.06 933
5.08 882
5.1 921
5.12 934
5.14 859
5.16 908
5.18 883
5.2 911
5.22 880
5.24 917
5.26 873
5.28 839
5.3 853
5.32 838
5.34 876
5.36 848
5.38 927
5.4 884
5.42 925
5.44 870
5.46 856
5.48 780
5.5 836
5.52 848
5.54 856
5.56 870
5.58 913
5.6 896
5.62 861
5.64 842
5.66 859
5.68 870
5.7 859
5.72 860
5.74 811
5.76 850
5.78 836
5.8 826
5.82 875
5.84 832
5.86 793
5.88 869
5.9 844
5.92 846
5.94 855
5.96 813
5.98 814
6 843
6.02 785
6.04 769
6.06 892
6.08 833
6.1 860
6.12 859
6.14 816
6.16 815
6.18 851
6.2 826
6.22 813
6.24 829
6.26 842
6.28 832
6.3 853
6.32 843
6.34 821
6.36 836
6.38 824
6.4 793
6.42 805
6.44 817
6.46 839
6.48 771
6.5 813
6.52 866
6.54 855
6.56 856
6.58 817
6.6 816
6.62 790
6.64 844
6.66 842
6.68 804
6.7 819
6.72 801
6.74 766
6.76 808
6.78 752
6.8 742
6.82 766
6.84 810
6.86 756
6.88 823
6.9 763
6.92 759
6.94 757
6.96 779
6.98 704
7 735
7.02 725
7.04 789
7.06 696
7.08 776
7.1 747
7.12 730
7.14 806
7.16 738
7.18 792
7.2 760
7.22 796
7.24 808
7.26 729
7.28 778
7.3 732
7.32 752
7.34 738
7.36 728
7.38 777
7.4 724
7.42 756
7.44 739
7.46 767
7.48 776
7.5 745
7.52 791
7.54 815
7.56 775
7.58 757
7.6 745
7.62 781
7.64 709
7.66 764
7.68 774
7.7 842
7.72 750
7.74 754
7.76 797
7.78 765
7.8 798
7.82 752
7.84 797
7.86 805
7.88 827
7.9 785
7.92 815
7.94 827
7.96 823
7.98 840
8 826
8.02 787
8.04 775
8.06 789
8.08 753
8.1 747
8.12 723
8.14 742
8.16 756
8.18 763
8.2 738
8.22 754
8.24 751
8.26 724
8.28 763
8.3 752
8.32 800
8.34 820
8.36 813
8.38 786
8.4 793
8.42 832
8.44 799
8.46 789
8.48 787
8.5 760
8.52 807
8.54 806
8.56 794
8.58 773
8.6 770
8.62 803
8.64 763
8.66 821
8.68 733
8.7 761
8.72 770
8.74 723
8.76 771
8.78 822
8.8 760
8.82 759
8.84 698
8.86 772
8.88 798
8.9 809
8.92 774
8.94 838
8.96 806
8.98 842
9 841
9.02 874
9.04 896
9.06 862
9.08 876
9.1 796
9.12 812
9.14 753
9.16 774
9.18 769
9.2 796
9.22 746
9.24 739
9.26 757
9.28 747
9.3 741
9.32 701
9.34 793
9.36 773
9.38 759
9.4 781
9.42 769
9.44 781
9.46 748
9.48 769
9.5 727
9.52 689
9.54 735
9.56 718
9.58 721
9.6 752
9.62 709
9.64 727
9.66 702
9.68 703
9.7 713
9.72 715
9.74 748
9.76 707
9.78 735
9.8 689
9.82 683
9.84 702
9.86 775
9.88 760
9.9 723
9.92 758
9.94 746
9.96 844
9.98 824
10 822
10.02 805
10.04 783
10.06 808
10.08 809
10.1 721
10.12 724
10.14 684
10.16 716
10.18 688
10.2 709
10.22 673
10.24 745
10.26 658
10.28 654
10.3 751
10.32 640
10.34 670
10.36 755
10.38 746
10.4 725
10.42 664
10.44 704
10.46 651
10.48 691
10.5 731
10.52 722
10.54 712
10.56 715
10.58 706
10.6 731
10.62 713
10.64 743
10.66 684
10.68 673
10.7 700
10.72 758
10.74 719
10.76 703
10.78 705
10.8 673
10.82 699
10.84 705
10.86 727
10.88 722
10.9 721
10.92 703
10.94 669
10.96 707
10.98 711
11 708
11.02 691
11.04 710
11.06 726
11.08 680
11.1 656
11.12 684
11.14 692
11.16 672
11.18 640
11.2 675
11.22 660
11.24 688
11.26 674
11.28 720
11.3 698
11.32 665
11.34 651
11.36 702
11.38 739
11.4 692
11.42 680
11.44 704
11.46 713
11.48 722
11.5 693
11.52 652
11.54 633
11.56 651
11.58 614
11.6 710
11.62 674
11.64 660
11.66 727
11.68 699
11.7 706
11.72 687
11.74 689
11.76 692
11.78 700
11.8 720
11.82 612
11.84 705
11.86 708
11.88 705
11.9 728
11.92 738
11.94 694
11.96 710
11.98 681
12 756
12.02 674
12.04 675
12.06 681
12.08 713
12.1 701
12.12 711
12.14 688
12.16 672
12.18 695
12.2 648
12.22 696
12.24 743
12.26 728
12.28 699
12.3 677
12.32 744
12.34 702
12.36 744
12.38 727
12.4 728
12.42 755
12.44 688
12.46 717
12.48 783
12.5 727
12.52 718
12.54 727
12.56 733
12.58 719
12.6 715
12.62 753
12.64 725
12.66 751
12.68 749
12.7 786
12.72 761
12.74 767
12.76 754
12.78 741
12.8 798
12.82 744
12.84 695
12.86 753
12.88 739
12.9 754
12.92 791
12.94 701
12.96 702
12.98 764
13 761
13.02 807
13.04 731
13.06 688
13.08 738
13.1 753
13.12 734
13.14 797
13.16 739
13.18 728
13.2 705
13.22 743
13.24 778
13.26 751
13.28 778
13.3 767
13.32 753
13.34 769
13.36 752
13.38 754
13.4 776
13.42 751
13.44 770
13.46 751
13.48 813
13.5 880
13.52 730
13.54 770
13.56 750
13.58 734
13.6 816
13.62 766
13.64 736
13.66 774
13.68 767
13.7 723
13.72 749
13.74 769
13.76 803
13.78 731
13.8 757
13.82 748
13.84 731
13.86 725
13.88 713
13.9 767
13.92 823
13.94 769
13.96 834
13.98 775
14 793
14.02 760
14.04 814
14.06 795
14.08 755
14.1 773
14.12 764
14.14 785
14.16 793
14.18 773
14.2 781
14.22 799
14.24 801
14.26 796
14.28 777
14.3 800
14.32 823
14.34 766
14.36 832
14.38 802
14.4 767
14.42 835
14.44 789
14.46 811
14.48 830
14.5 827
14.52 869
14.54 806
14.56 836
14.58 830
14.6 854
14.62 881
14.64 827
14.66 892
14.68 831
14.7 868
14.72 838
14.74 822
14.76 867
14.78 847
14.8 861
14.82 833
14.84 840
14.86 861
14.88 839
14.9 931
14.92 836
14.94 878
14.96 905
14.98 884
15 869
15.02 819
15.04 917
15.06 888
15.08 876
15.1 857
15.12 895
15.14 866
15.16 915
15.18 878
15.2 903
15.22 923
15.24 905
15.26 859
15.28 868
15.3 867
15.32 857
15.34 895
15.36 889
15.38 880
15.4 952
15.42 940
15.44 924
15.46 886
15.48 918
15.5 911
15.52 889
15.54 889
15.56 956
15.58 933
15.6 942
15.62 987
15.64 953
15.66 910
15.68 936
15.7 980
15.72 933
15.74 926
15.76 966
15.78 959
15.8 974
15.82 923
15.84 936
15.86 943
15.88 953
15.9 935
15.92 924
15.94 964
15.96 946
15.98 991
16 1042
16.02 933
16.04 989
16.06 957
16.08 1017
16.1 1002
16.12 1059
16.14 1035
16.16 978
16.18 1018
16.2 1040
16.22 999
16.24 1082
16.26 1028
16.28 1005
16.3 1066
16.32 1011
16.34 1019
16.36 1051
16.38 1028
16.4 1045
16.42 1036
16.44 1032
16.46 1070
16.48 1107
16.5 1083
16.52 1096
16.54 1049
16.56 1078
16.58 1051
16.6 1111
16.62 1106
16.64 1111
16.66 1046
16.68 1113
16.7 1069
16.72 1079
16.74 1132
16.76 1105
16.78 1105
16.8 1159
16.82 1074
16.84 1153
16.86 1203
16.88 1200
16.9 1203
16.92 1242
16.94 1302
16.96 1407
16.98 1441
17 1489
17.02 1489
17.04 1545
17.06 1436
17.08 1424
17.1 1358
17.12 1299
17.14 1204
17.16 1184
17.18 1225
17.2 1192
17.22 1237
17.24 1198
17.26 1218
17.28 1208
17.3 1220
17.32 1178
17.34 1174
17.36 1238
17.38 1204
17.4 1250
17.42 1228
17.44 1205
17.46 1261
17.48 1180
17.5 1250
17.52 1183
17.54 1181
17.56 1210
17.58 1261
17.6 1261
17.62 1270
17.64 1239
17.66 1280
17.68 1242
17.7 1245
17.72 1309
17.74 1280
17.76 1248
17.78 1308
17.8 1319
17.82 1343
17.84 1306
17.86 1324
17.88 1250
17.9 1325
17.92 1345
17.94 1318
17.96 1377
17.98 1381
18 1309
18.02 1388
18.04 1333
18.06 1391
18.08 1436
18.1 1325
18.12 1308
18.14 1369
18.16 1376
18.18 1359
18.2 1376
18.22 1424
18.24 1280
18.26 1386
18.28 1412
18.3 1393
18.32 1389
18.34 1484
18.36 1435
18.38 1398
18.4 1413
18.42 1422
18.44 1471
18.46 1454
18.48 1483
18.5 1436
18.52 1443
18.54 1487
18.56 1478
18.58 1469
18.6 1489
18.62 1511
18.64 1545
18.66 1453
18.68 1444
18.7 1531
18.72 1462
18.74 1623
18.76 1604
18.78 1539
18.8 1533
18.82 1575
18.84 1540
18.86 1519
18.88 1522
18.9 1524
18.92 1528
18.94 1515
18.96 1584
18.98 1577
19 1553
19.02 1536
19.04 1598
19.06 1566
19.08 1530
19.1 1589
19.12 1549
19.14 1613
19.16 1646
19.18 1710
19.2 1630
19.22 1555
19.24 1554
19.26 1591
19.28 1583
19.3 1639
19.32 1604
19.34 1687
19.36 1652
19.38 1701
19.4 1610
19.42 1629
19.44 1662
19.46 1619
19.48 1674
19.5 1632
19.52 1724
19.54 1693
19.56 1733
19.58 1702
19.6 1678
19.62 1736
19.64 1744
19.66 1690
19.68 1681
19.7 1756
19.72 1748
19.74 1801
19.76 1696
19.78 1768
19.8 1694
19.82 1763
19.84 1841
19.86 1821
19.88 1732
19.9 1763
19.92 1746
19.94 1796
19.96 1769
19.98 1780
20 1829