File: xrd-UiO-67/pxrddata/39-3.ASC
3 2796
3.02 2735
3.04 2664
3.06 2427
3.08 2380
3.1 2259
3.12 2219
3.14 2233
3.16 2175
3.18 2101
3.2 2087
3.22 2074
3.24 2015
3.26 2030
3.28 2005
3.3 2048
3.32 1953
3.34 1972
3.36 1935
3.38 1988
3.4 1956
3.42 1907
3.44 1870
3.46 1876
3.48 1826
3.5 1755
3.52 1817
3.54 1744
3.56 1731
3.58 1766
3.6 1788
3.62 1702
3.64 1657
3.66 1724
3.68 1664
3.7 1672
3.72 1704
3.74 1680
3.76 1653
3.78 1618
3.8 1619
3.82 1586
3.84 1704
3.86 1645
3.88 1703
3.9 1704
3.92 1575
3.94 1605
3.96 1659
3.98 1710
4 1736
4.02 1706
4.04 1725
4.06 1753
4.08 1795
4.1 1719
4.12 1739
4.14 1679
4.16 1686
4.18 1660
4.2 1610
4.22 1576
4.24 1544
4.26 1471
4.28 1480
4.3 1480
4.32 1419
4.34 1425
4.36 1403
4.38 1398
4.4 1334
4.42 1398
4.44 1394
4.46 1337
4.48 1336
4.5 1336
4.52 1347
4.54 1330
4.56 1326
4.58 1426
4.6 1345
4.62 1364
4.64 1364
4.66 1319
4.68 1353
4.7 1326
4.72 1338
4.74 1336
4.76 1347
4.78 1336
4.8 1361
4.82 1368
4.84 1394
4.86 1420
4.88 1470
4.9 1369
4.92 1423
4.94 1469
4.96 1438
4.98 1504
5 1479
5.02 1449
5.04 1508
5.06 1585
5.08 1585
5.1 1631
5.12 1706
5.14 1699
5.16 1834
5.18 2011
5.2 1941
5.22 2062
5.24 2040
5.26 2158
5.28 2377
5.3 2412
5.32 2624
5.34 2783
5.36 3065
5.38 3159
5.4 3418
5.42 3811
5.44 3943
5.46 4106
5.48 3777
5.5 3110
5.52 2664
5.54 2461
5.56 2430
5.58 2404
5.6 2436
5.62 2487
5.64 2425
5.66 2521
5.68 2697
5.7 2803
5.72 2906
5.74 3167
5.76 3388
5.78 3424
5.8 3561
5.82 3541
5.84 3165
5.86 2458
5.88 1972
5.9 1563
5.92 1369
5.94 1309
5.96 1234
5.98 1174
6 1110
6.02 1063
6.04 1081
6.06 1040
6.08 994
6.1 1018
6.12 979
6.14 968
6.16 947
6.18 943
6.2 947
6.22 985
6.24 951
6.26 903
6.28 923
6.3 953
6.32 918
6.34 957
6.36 864
6.38 947
6.4 869
6.42 907
6.44 928
6.46 929
6.48 928
6.5 904
6.52 896
6.54 921
6.56 924
6.58 913
6.6 954
6.62 914
6.64 960
6.66 884
6.68 938
6.7 983
6.72 963
6.74 969
6.76 1015
6.78 1004
6.8 1069
6.82 1019
6.84 927
6.86 929
6.88 898
6.9 882
6.92 778
6.94 825
6.96 803
6.98 780
7 818
7.02 790
7.04 729
7.06 733
7.08 756
7.1 755
7.12 775
7.14 740
7.16 772
7.18 724
7.2 659
7.22 710
7.24 749
7.26 735
7.28 734
7.3 723
7.32 704
7.34 740
7.36 684
7.38 692
7.4 726
7.42 684
7.44 718
7.46 709
7.48 720
7.5 731
7.52 694
7.54 756
7.56 687
7.58 675
7.6 732
7.62 702
7.64 693
7.66 707
7.68 653
7.7 708
7.72 647
7.74 700
7.76 712
7.78 695
7.8 716
7.82 686
7.84 668
7.86 671
7.88 690
7.9 678
7.92 695
7.94 671
7.96 676
7.98 669
8 681
8.02 698
8.04 724
8.06 700
8.08 672
8.1 691
8.12 683
8.14 735
8.16 671
8.18 689
8.2 691
8.22 703
8.24 660
8.26 712
8.28 670
8.3 693
8.32 630
8.34 638
8.36 667
8.38 652
8.4 646
8.42 626
8.44 650
8.46 689
8.48 643
8.5 659
8.52 665
8.54 630
8.56 612
8.58 631
8.6 632
8.62 602
8.64 603
8.66 605
8.68 650
8.7 611
8.72 636
8.74 654
8.76 640
8.78 631
8.8 642
8.82 656
8.84 644
8.86 646
8.88 661
8.9 678
8.92 675
8.94 669
8.96 640
8.98 722
9 690
9.02 734
9.04 706
9.06 752
9.08 743
9.1 796
9.12 815
9.14 794
9.16 850
9.18 896
9.2 1007
9.22 952
9.24 992
9.26 1105
9.28 1193
9.3 1274
9.32 1435
9.34 1593
9.36 1789
9.38 1856
9.4 1714
9.42 1260
9.44 947
9.46 793
9.48 734
9.5 718
9.52 713
9.54 718
9.56 641
9.58 661
9.6 624
9.62 619
9.64 618
9.66 610
9.68 640
9.7 578
9.72 625
9.74 649
9.76 686
9.78 622
9.8 620
9.82 604
9.84 655
9.86 652
9.88 615
9.9 675
9.92 646
9.94 650
9.96 628
9.98 632
10 611
10.02 633
10.04 622
10.06 715
10.08 716
10.1 707
10.12 689
10.14 752
10.16 754
10.18 770
10.2 826
10.22 850
10.24 796
10.26 766
10.28 764
10.3 645
10.32 619
10.34 607
10.36 612
10.38 579
10.4 600
10.42 566
10.44 600
10.46 628
10.48 623
10.5 635
10.52 590
10.54 618
10.56 646
10.58 615
10.6 668
10.62 676
10.64 744
10.66 647
10.68 733
10.7 789
10.72 749
10.74 832
10.76 927
10.78 964
10.8 1008
10.82 1033
10.84 1031
10.86 905
10.88 892
10.9 903
10.92 959
10.94 918
10.96 968
10.98 1032
11 1061
11.02 1058
11.04 912
11.06 768
11.08 654
11.1 599
11.12 577
11.14 617
11.16 624
11.18 579
11.2 572
11.22 561
11.24 569
11.26 579
11.28 588
11.3 546
11.32 582
11.34 606
11.36 597
11.38 576
11.4 652
11.42 598
11.44 637
11.46 671
11.48 693
11.5 703
11.52 737
11.54 730
11.56 701
11.58 717
11.6 675
11.62 629
11.64 611
11.66 565
11.68 528
11.7 610
11.72 548
11.74 571
11.76 554
11.78 538
11.8 603
11.82 549
11.84 536
11.86 538
11.88 551
11.9 553
11.92 545
11.94 539
11.96 530
11.98 548
12 562
12.02 540
12.04 584
12.06 602
12.08 572
12.1 532
12.12 572
12.14 603
12.16 617
12.18 556
12.2 590
12.22 608
12.24 603
12.26 652
12.28 577
12.3 605
12.32 641
12.34 597
12.36 576
12.38 611
12.4 608
12.42 596
12.44 527
12.46 562
12.48 557
12.5 563
12.52 547
12.54 553
12.56 513
12.58 530
12.6 505
12.62 512
12.64 493
12.66 544
12.68 528
12.7 521
12.72 481
12.74 507
12.76 520
12.78 548
12.8 548
12.82 527
12.84 540
12.86 529
12.88 502
12.9 518
12.92 530
12.94 509
12.96 520
12.98 546
13 541
13.02 566
13.04 532
13.06 550
13.08 513
13.1 541
13.12 495
13.14 493
13.16 557
13.18 557
13.2 535
13.22 553
13.24 515
13.26 568
13.28 553
13.3 562
13.32 531
13.34 560
13.36 581
13.38 594
13.4 574
13.42 530
13.44 547
13.46 540
13.48 592
13.5 562
13.52 562
13.54 562
13.56 561
13.58 562
13.6 540
13.62 506
13.64 584
13.66 547
13.68 559
13.7 550
13.72 543
13.74 503
13.76 514
13.78 543
13.8 538
13.82 564
13.84 539
13.86 495
13.88 580
13.9 541
13.92 529
13.94 555
13.96 559
13.98 534
14 551
14.02 605
14.04 533
14.06 574
14.08 540
14.1 590
14.12 534
14.14 563
14.16 529
14.18 550
14.2 589
14.22 603
14.24 599
14.26 637
14.28 598
14.3 542
14.32 568
14.34 638
14.36 611
14.38 602
14.4 549
14.42 579
14.44 585
14.46 625
14.48 572
14.5 526
14.52 571
14.54 586
14.56 518
14.58 522
14.6 562
14.62 558
14.64 522
14.66 552
14.68 542
14.7 563
14.72 556
14.74 544
14.76 610
14.78 587
14.8 559
14.82 588
14.84 589
14.86 591
14.88 611
14.9 627
14.92 580
14.94 579
14.96 588
14.98 606
15 566
15.02 581
15.04 603
15.06 571
15.08 541
15.1 588
15.12 574
15.14 597
15.16 586
15.18 584
15.2 579
15.22 561
15.24 553
15.26 569
15.28 564
15.3 577
15.32 529
15.34 571
15.36 569
15.38 590
15.4 584
15.42 617
15.44 576
15.46 571
15.48 585
15.5 600
15.52 573
15.54 566
15.56 565
15.58 556
15.6 619
15.62 540
15.64 571
15.66 602
15.68 578
15.7 614
15.72 584
15.74 542
15.76 579
15.78 571
15.8 578
15.82 573
15.84 589
15.86 592
15.88 597
15.9 582
15.92 585
15.94 599
15.96 610
15.98 592
16 600
16.02 558
16.04 573
16.06 618
16.08 590
16.1 620
16.12 589
16.14 588
16.16 619
16.18 603
16.2 605
16.22 634
16.24 639
16.26 579
16.28 591
16.3 618
16.32 659
16.34 660
16.36 625
16.38 714
16.4 638
16.42 571
16.44 633
16.46 604
16.48 613
16.5 637
16.52 658
16.54 608
16.56 622
16.58 597
16.6 689
16.62 606
16.64 642
16.66 612
16.68 642
16.7 673
16.72 678
16.74 643
16.76 606
16.78 621
16.8 640
16.82 645
16.84 640
16.86 631
16.88 674
16.9 605
16.92 649
16.94 631
16.96 646
16.98 617
17 601
17.02 624
17.04 690
17.06 653
17.08 656
17.1 661
17.12 630
17.14 605
17.16 640
17.18 680
17.2 622
17.22 657
17.24 666
17.26 651
17.28 672
17.3 672
17.32 676
17.34 721
17.36 686
17.38 668
17.4 688
17.42 682
17.44 707
17.46 692
17.48 720
17.5 697
17.52 702
17.54 757
17.56 705
17.58 708
17.6 700
17.62 733
17.64 696
17.66 728
17.68 727
17.7 769
17.72 651
17.74 704
17.76 684
17.78 687
17.8 673
17.82 696
17.84 713
17.86 711
17.88 713
17.9 748
17.92 737
17.94 702
17.96 711
17.98 718
18 733
18.02 733
18.04 669
18.06 718
18.08 674
18.1 659
18.12 705
18.14 656
18.16 702
18.18 726
18.2 660
18.22 665
18.24 742
18.26 751
18.28 735
18.3 696
18.32 709
18.34 737
18.36 732
18.38 724
18.4 718
18.42 695
18.44 672
18.46 729
18.48 740
18.5 712
18.52 776
18.54 720
18.56 762
18.58 722
18.6 750
18.62 755
18.64 789
18.66 776
18.68 783
18.7 834
18.72 849
18.74 810
18.76 764
18.78 809
18.8 837
18.82 813
18.84 812
18.86 844
18.88 795
18.9 796
18.92 846
18.94 829
18.96 853
18.98 874
19 784
19.02 847
19.04 831
19.06 834
19.08 898
19.1 883
19.12 940
19.14 961
19.16 990
19.18 955
19.2 952
19.22 877
19.24 865
19.26 828
19.28 845
19.3 887
19.32 851
19.34 855
19.36 879
19.38 885
19.4 903
19.42 893
19.44 998
19.46 994
19.48 1042
19.5 1046
19.52 1056
19.54 1091
19.56 1113
19.58 1047
19.6 1062
19.62 1083
19.64 936
19.66 885
19.68 806
19.7 879
19.72 843
19.74 873
19.76 862
19.78 837
19.8 858
19.82 886
19.84 918
19.86 929
19.88 884
19.9 948
19.92 956
19.94 967
19.96 912
19.98 872
20 873