File: xrd-UiO-67/pxrddata/39-4.ASC
3 2659
3.02 2383
3.04 2234
3.06 2203
3.08 2097
3.1 1939
3.12 1988
3.14 1903
3.16 1827
3.18 1797
3.2 1824
3.22 1764
3.24 1729
3.26 1832
3.28 1730
3.3 1714
3.32 1757
3.34 1723
3.36 1720
3.38 1656
3.4 1664
3.42 1623
3.44 1671
3.46 1613
3.48 1628
3.5 1542
3.52 1510
3.54 1557
3.56 1568
3.58 1575
3.6 1490
3.62 1522
3.64 1498
3.66 1488
3.68 1492
3.7 1514
3.72 1491
3.74 1449
3.76 1415
3.78 1378
3.8 1400
3.82 1413
3.84 1383
3.86 1373
3.88 1337
3.9 1398
3.92 1309
3.94 1328
3.96 1218
3.98 1212
4 1291
4.02 1292
4.04 1141
4.06 1298
4.08 1241
4.1 1236
4.12 1212
4.14 1194
4.16 1190
4.18 1216
4.2 1176
4.22 1203
4.24 1117
4.26 1213
4.28 1171
4.3 1177
4.32 1131
4.34 1158
4.36 1145
4.38 1180
4.4 1081
4.42 1135
4.44 1107
4.46 1094
4.48 1136
4.5 1121
4.52 1132
4.54 1119
4.56 1071
4.58 1108
4.6 1108
4.62 1095
4.64 1076
4.66 1143
4.68 1118
4.7 1138
4.72 1080
4.74 1072
4.76 1086
4.78 1124
4.8 1149
4.82 1148
4.84 1178
4.86 1188
4.88 1147
4.9 1160
4.92 1227
4.94 1140
4.96 1199
4.98 1232
5 1346
5.02 1336
5.04 1292
5.06 1393
5.08 1449
5.1 1517
5.12 1478
5.14 1579
5.16 1589
5.18 1731
5.2 1747
5.22 1889
5.24 1973
5.26 2098
5.28 2218
5.3 2364
5.32 2574
5.34 2793
5.36 3187
5.38 3636
5.4 4168
5.42 4206
5.44 3333
5.46 2652
5.48 2284
5.5 1939
5.52 1810
5.54 1638
5.56 1596
5.58 1521
5.6 1463
5.62 1370
5.64 1310
5.66 1283
5.68 1281
5.7 1230
5.72 1209
5.74 1147
5.76 1178
5.78 1065
5.8 1043
5.82 1100
5.84 1041
5.86 1009
5.88 968
5.9 969
5.92 909
5.94 925
5.96 934
5.98 926
6 950
6.02 922
6.04 872
6.06 867
6.08 839
6.1 882
6.12 837
6.14 779
6.16 846
6.18 826
6.2 868
6.22 786
6.24 826
6.26 844
6.28 826
6.3 791
6.32 845
6.34 808
6.36 798
6.38 803
6.4 804
6.42 808
6.44 790
6.46 802
6.48 781
6.5 775
6.52 793
6.54 797
6.56 786
6.58 785
6.6 769
6.62 792
6.64 750
6.66 766
6.68 793
6.7 761
6.72 756
6.74 827
6.76 805
6.78 800
6.8 777
6.82 752
6.84 732
6.86 747
6.88 787
6.9 781
6.92 754
6.94 761
6.96 813
6.98 804
7 808
7.02 777
7.04 740
7.06 847
7.08 835
7.1 812
7.12 797
7.14 790
7.16 778
7.18 762
7.2 825
7.22 829
7.24 819
7.26 830
7.28 848
7.3 910
7.32 874
7.34 916
7.36 894
7.38 901
7.4 893
7.42 996
7.44 997
7.46 1073
7.48 1015
7.5 1057
7.52 1101
7.54 1112
7.56 1234
7.58 1200
7.6 1150
7.62 1201
7.64 1266
7.66 1193
7.68 1238
7.7 1258
7.72 1355
7.74 1379
7.76 1401
7.78 1434
7.8 1408
7.82 1382
7.84 1457
7.86 1311
7.88 1259
7.9 1267
7.92 1300
7.94 1258
7.96 1362
7.98 1256
8 1146
8.02 1166
8.04 1135
8.06 1130
8.08 1086
8.1 1057
8.12 1066
8.14 1034
8.16 997
8.18 933
8.2 973
8.22 960
8.24 864
8.26 960
8.28 876
8.3 899
8.32 887
8.34 891
8.36 819
8.38 805
8.4 866
8.42 869
8.44 874
8.46 808
8.48 846
8.5 820
8.52 752
8.54 833
8.56 800
8.58 834
8.6 769
8.62 800
8.64 827
8.66 831
8.68 725
8.7 811
8.72 780
8.74 783
8.76 813
8.78 823
8.8 810
8.82 898
8.84 905
8.86 885
8.88 947
8.9 929
8.92 993
8.94 982
8.96 978
8.98 1074
9 1034
9.02 1009
9.04 984
9.06 1021
9.08 1033
9.1 997
9.12 1104
9.14 1085
9.16 1063
9.18 1103
9.2 1086
9.22 1119
9.24 1233
9.26 1234
9.28 1358
9.3 1447
9.32 1597
9.34 1600
9.36 1381
9.38 1165
9.4 997
9.42 887
9.44 837
9.46 818
9.48 811
9.5 768
9.52 739
9.54 728
9.56 736
9.58 710
9.6 679
9.62 669
9.64 721
9.66 728
9.68 686
9.7 716
9.72 687
9.74 696
9.76 676
9.78 666
9.8 703
9.82 688
9.84 699
9.86 721
9.88 787
9.9 744
9.92 737
9.94 714
9.96 727
9.98 732
10 753
10.02 785
10.04 756
10.06 727
10.08 679
10.1 709
10.12 747
10.14 721
10.16 737
10.18 791
10.2 757
10.22 731
10.24 759
10.26 774
10.28 812
10.3 750
10.32 747
10.34 760
10.36 738
10.38 807
10.4 791
10.42 766
10.44 766
10.46 804
10.48 769
10.5 792
10.52 804
10.54 847
10.56 747
10.58 775
10.6 835
10.62 808
10.64 826
10.66 866
10.68 860
10.7 901
10.72 971
10.74 1058
10.76 1057
10.78 1107
10.8 1035
10.82 979
10.84 863
10.86 880
10.88 807
10.9 850
10.92 806
10.94 808
10.96 793
10.98 747
11 742
11.02 725
11.04 789
11.06 703
11.08 723
11.1 664
11.12 675
11.14 658
11.16 627
11.18 628
11.2 645
11.22 605
11.24 635
11.26 622
11.28 632
11.3 586
11.32 615
11.34 608
11.36 599
11.38 610
11.4 600
11.42 591
11.44 615
11.46 576
11.48 629
11.5 630
11.52 602
11.54 543
11.56 630
11.58 591
11.6 592
11.62 564
11.64 567
11.66 608
11.68 523
11.7 573
11.72 551
11.74 557
11.76 599
11.78 560
11.8 598
11.82 561
11.84 582
11.86 591
11.88 562
11.9 592
11.92 589
11.94 580
11.96 532
11.98 581
12 601
12.02 567
12.04 603
12.06 660
12.08 618
12.1 600
12.12 599
12.14 634
12.16 648
12.18 682
12.2 696
12.22 671
12.24 696
12.26 722
12.28 765
12.3 730
12.32 799
12.34 798
12.36 814
12.38 751
12.4 731
12.42 699
12.44 659
12.46 654
12.48 706
12.5 681
12.52 692
12.54 691
12.56 706
12.58 696
12.6 730
12.62 758
12.64 702
12.66 678
12.68 690
12.7 667
12.72 623
12.74 689
12.76 589
12.78 624
12.8 624
12.82 609
12.84 639
12.86 599
12.88 604
12.9 614
12.92 608
12.94 621
12.96 591
12.98 618
13 620
13.02 588
13.04 600
13.06 609
13.08 596
13.1 544
13.12 592
13.14 577
13.16 591
13.18 563
13.2 597
13.22 591
13.24 587
13.26 621
13.28 582
13.3 564
13.32 587
13.34 627
13.36 569
13.38 595
13.4 579
13.42 508
13.44 562
13.46 588
13.48 565
13.5 578
13.52 564
13.54 595
13.56 641
13.58 589
13.6 577
13.62 580
13.64 592
13.66 584
13.68 589
13.7 590
13.72 601
13.74 530
13.76 526
13.78 588
13.8 582
13.82 547
13.84 524
13.86 552
13.88 578
13.9 544
13.92 529
13.94 582
13.96 594
13.98 576
14 538
14.02 565
14.04 575
14.06 558
14.08 582
14.1 591
14.12 637
14.14 601
14.16 599
14.18 561
14.2 599
14.22 635
14.24 577
14.26 549
14.28 593
14.3 609
14.32 586
14.34 577
14.36 587
14.38 549
14.4 577
14.42 627
14.44 563
14.46 519
14.48 540
14.5 562
14.52 557
14.54 586
14.56 561
14.58 612
14.6 588
14.62 577
14.64 532
14.66 591
14.68 583
14.7 587
14.72 564
14.74 553
14.76 583
14.78 589
14.8 615
14.82 603
14.84 575
14.86 570
14.88 555
14.9 589
14.92 624
14.94 586
14.96 583
14.98 596
15 619
15.02 591
15.04 555
15.06 582
15.08 622
15.1 580
15.12 584
15.14 607
15.16 575
15.18 584
15.2 584
15.22 605
15.24 557
15.26 559
15.28 590
15.3 598
15.32 529
15.34 557
15.36 598
15.38 599
15.4 593
15.42 631
15.44 566
15.46 612
15.48 616
15.5 581
15.52 586
15.54 594
15.56 636
15.58 594
15.6 575
15.62 595
15.64 579
15.66 580
15.68 636
15.7 611
15.72 608
15.74 587
15.76 600
15.78 551
15.8 617
15.82 572
15.84 599
15.86 616
15.88 628
15.9 681
15.92 589
15.94 623
15.96 589
15.98 601
16 639
16.02 597
16.04 635
16.06 637
16.08 577
16.1 630
16.12 642
16.14 637
16.16 660
16.18 668
16.2 628
16.22 639
16.24 636
16.26 627
16.28 645
16.3 602
16.32 650
16.34 673
16.36 671
16.38 658
16.4 679
16.42 663
16.44 640
16.46 656
16.48 646
16.5 676
16.52 722
16.54 659
16.56 649
16.58 644
16.6 640
16.62 638
16.64 697
16.66 678
16.68 647
16.7 680
16.72 643
16.74 640
16.76 670
16.78 697
16.8 663
16.82 681
16.84 657
16.86 680
16.88 712
16.9 672
16.92 673
16.94 732
16.96 761
16.98 779
17 710
17.02 665
17.04 715
17.06 658
17.08 684
17.1 670
17.12 695
17.14 714
17.16 703
17.18 707
17.2 737
17.22 743
17.24 731
17.26 703
17.28 686
17.3 679
17.32 706
17.34 711
17.36 717
17.38 699
17.4 711
17.42 726
17.44 698
17.46 701
17.48 748
17.5 752
17.52 689
17.54 737
17.56 712
17.58 716
17.6 757
17.62 700
17.64 719
17.66 760
17.68 721
17.7 724
17.72 795
17.74 726
17.76 754
17.78 693
17.8 697
17.82 766
17.84 775
17.86 739
17.88 752
17.9 795
17.92 774
17.94 773
17.96 746
17.98 741
18 771
18.02 762
18.04 757
18.06 793
18.08 794
18.1 759
18.12 763
18.14 766
18.16 760
18.18 765
18.2 808
18.22 780
18.24 799
18.26 756
18.28 736
18.3 748
18.32 785
18.34 778
18.36 771
18.38 812
18.4 779
18.42 804
18.44 770
18.46 850
18.48 846
18.5 781
18.52 827
18.54 805
18.56 835
18.58 824
18.6 837
18.62 870
18.64 845
18.66 882
18.68 845
18.7 904
18.72 835
18.74 891
18.76 826
18.78 859
18.8 878
18.82 832
18.84 874
18.86 846
18.88 860
18.9 877
18.92 841
18.94 887
18.96 884
18.98 881
19 870
19.02 870
19.04 861
19.06 833
19.08 830
19.1 866
19.12 851
19.14 805
19.16 917
19.18 864
19.2 814
19.22 892
19.24 950
19.26 870
19.28 878
19.3 921
19.32 913
19.34 968
19.36 984
19.38 979
19.4 963
19.42 1023
19.44 1068
19.46 1075
19.48 1075
19.5 1055
19.52 1072
19.54 973
19.56 986
19.58 1016
19.6 953
19.62 977
19.64 951
19.66 942
19.68 920
19.7 998
19.72 902
19.74 978
19.76 935
19.78 915
19.8 958
19.82 922
19.84 987
19.86 986
19.88 952
19.9 952
19.92 902
19.94 929
19.96 972
19.98 957
20 1002