File: xrd-UiO-67/pxrddata/39-7.ASC
3 2707
3.02 2520
3.04 2494
3.06 2370
3.08 2296
3.1 2143
3.12 2106
3.14 2127
3.16 2040
3.18 1927
3.2 1964
3.22 1964
3.24 1944
3.26 1875
3.28 1893
3.3 1802
3.32 1828
3.34 1808
3.36 1824
3.38 1735
3.4 1815
3.42 1794
3.44 1688
3.46 1758
3.48 1684
3.5 1661
3.52 1679
3.54 1678
3.56 1578
3.58 1681
3.6 1643
3.62 1637
3.64 1531
3.66 1530
3.68 1453
3.7 1496
3.72 1525
3.74 1543
3.76 1529
3.78 1391
3.8 1429
3.82 1422
3.84 1403
3.86 1422
3.88 1347
3.9 1403
3.92 1438
3.94 1434
3.96 1384
3.98 1403
4 1354
4.02 1342
4.04 1359
4.06 1356
4.08 1355
4.1 1285
4.12 1337
4.14 1265
4.16 1309
4.18 1305
4.2 1356
4.22 1335
4.24 1341
4.26 1306
4.28 1317
4.3 1255
4.32 1210
4.34 1277
4.36 1239
4.38 1234
4.4 1151
4.42 1264
4.44 1243
4.46 1250
4.48 1201
4.5 1263
4.52 1237
4.54 1133
4.56 1230
4.58 1233
4.6 1173
4.62 1142
4.64 1129
4.66 1204
4.68 1153
4.7 1156
4.72 1205
4.74 1145
4.76 1154
4.78 1122
4.8 1139
4.82 1115
4.84 1196
4.86 1152
4.88 1155
4.9 1102
4.92 1130
4.94 1153
4.96 1205
4.98 1165
5 1142
5.02 1129
5.04 1102
5.06 1109
5.08 1163
5.1 1157
5.12 1145
5.14 1129
5.16 1136
5.18 1082
5.2 1193
5.22 1206
5.24 1190
5.26 1133
5.28 1192
5.3 1117
5.32 1231
5.34 1284
5.36 1304
5.38 1362
5.4 1429
5.42 1463
5.44 1598
5.46 1535
5.48 1453
5.5 1328
5.52 1228
5.54 1173
5.56 1089
5.58 1141
5.6 1062
5.62 1040
5.64 988
5.66 1057
5.68 952
5.7 946
5.72 1003
5.74 931
5.76 1007
5.78 974
5.8 952
5.82 922
5.84 907
5.86 987
5.88 924
5.9 906
5.92 951
5.94 909
5.96 912
5.98 953
6 889
6.02 867
6.04 902
6.06 863
6.08 883
6.1 866
6.12 820
6.14 830
6.16 829
6.18 858
6.2 839
6.22 857
6.24 805
6.26 805
6.28 790
6.3 860
6.32 831
6.34 883
6.36 848
6.38 763
6.4 790
6.42 847
6.44 795
6.46 798
6.48 865
6.5 750
6.52 802
6.54 809
6.56 785
6.58 795
6.6 754
6.62 822
6.64 806
6.66 790
6.68 775
6.7 771
6.72 748
6.74 749
6.76 750
6.78 778
6.8 756
6.82 740
6.84 725
6.86 776
6.88 717
6.9 732
6.92 751
6.94 704
6.96 712
6.98 761
7 743
7.02 710
7.04 706
7.06 773
7.08 734
7.1 731
7.12 713
7.14 804
7.16 724
7.18 707
7.2 735
7.22 715
7.24 726
7.26 706
7.28 688
7.3 683
7.32 714
7.34 726
7.36 641
7.38 705
7.4 724
7.42 711
7.44 713
7.46 768
7.48 744
7.5 740
7.52 730
7.54 719
7.56 728
7.58 751
7.6 666
7.62 689
7.64 749
7.66 692
7.68 729
7.7 743
7.72 702
7.74 726
7.76 702
7.78 678
7.8 666
7.82 691
7.84 660
7.86 695
7.88 745
7.9 704
7.92 722
7.94 648
7.96 675
7.98 678
8 760
8.02 676
8.04 693
8.06 657
8.08 683
8.1 699
8.12 704
8.14 687
8.16 656
8.18 633
8.2 633
8.22 669
8.24 679
8.26 678
8.28 610
8.3 668
8.32 621
8.34 656
8.36 659
8.38 643
8.4 615
8.42 662
8.44 673
8.46 700
8.48 630
8.5 666
8.52 678
8.54 628
8.56 642
8.58 606
8.6 627
8.62 693
8.64 626
8.66 618
8.68 666
8.7 674
8.72 691
8.74 634
8.76 687
8.78 607
8.8 654
8.82 602
8.84 648
8.86 635
8.88 664
8.9 654
8.92 642
8.94 623
8.96 625
8.98 613
9 659
9.02 677
9.04 647
9.06 623
9.08 667
9.1 615
9.12 653
9.14 626
9.16 594
9.18 631
9.2 632
9.22 686
9.24 664
9.26 677
9.28 697
9.3 753
9.32 732
9.34 783
9.36 814
9.38 822
9.4 749
9.42 708
9.44 670
9.46 667
9.48 623
9.5 614
9.52 618
9.54 651
9.56 624
9.58 618
9.6 586
9.62 599
9.64 576
9.66 567
9.68 592
9.7 600
9.72 582
9.74 578
9.76 609
9.78 602
9.8 594
9.82 595
9.84 611
9.86 610
9.88 567
9.9 517
9.92 629
9.94 618
9.96 567
9.98 592
10 578
10.02 579
10.04 554
10.06 573
10.08 560
10.1 578
10.12 569
10.14 556
10.16 597
10.18 587
10.2 567
10.22 583
10.24 570
10.26 555
10.28 563
10.3 603
10.32 553
10.34 577
10.36 567
10.38 556
10.4 569
10.42 569
10.44 606
10.46 563
10.48 578
10.5 552
10.52 557
10.54 588
10.56 543
10.58 566
10.6 555
10.62 552
10.64 611
10.66 553
10.68 602
10.7 624
10.72 605
10.74 646
10.76 642
10.78 647
10.8 682
10.82 671
10.84 651
10.86 675
10.88 643
10.9 599
10.92 647
10.94 570
10.96 603
10.98 579
11 534
11.02 585
11.04 630
11.06 591
11.08 578
11.1 539
11.12 549
11.14 544
11.16 575
11.18 527
11.2 543
11.22 580
11.24 553
11.26 584
11.28 574
11.3 579
11.32 573
11.34 522
11.36 548
11.38 545
11.4 552
11.42 591
11.44 532
11.46 570
11.48 550
11.5 553
11.52 555
11.54 589
11.56 571
11.58 583
11.6 539
11.62 539
11.64 557
11.66 527
11.68 570
11.7 589
11.72 528
11.74 577
11.76 558
11.78 574
11.8 517
11.82 567
11.84 512
11.86 564
11.88 556
11.9 547
11.92 548
11.94 533
11.96 514
11.98 525
12 546
12.02 524
12.04 578
12.06 543
12.08 553
12.1 558
12.12 562
12.14 551
12.16 542
12.18 549
12.2 575
12.22 583
12.24 552
12.26 546
12.28 601
12.3 615
12.32 600
12.34 570
12.36 565
12.38 527
12.4 590
12.42 580
12.44 584
12.46 585
12.48 601
12.5 552
12.52 543
12.54 510
12.56 554
12.58 559
12.6 545
12.62 563
12.64 571
12.66 603
12.68 600
12.7 552
12.72 586
12.74 531
12.76 541
12.78 579
12.8 545
12.82 600
12.84 573
12.86 543
12.88 550
12.9 595
12.92 586
12.94 568
12.96 551
12.98 588
13 558
13.02 562
13.04 593
13.06 602
13.08 554
13.1 580
13.12 574
13.14 583
13.16 546
13.18 598
13.2 564
13.22 531
13.24 566
13.26 591
13.28 586
13.3 542
13.32 574
13.34 546
13.36 623
13.38 589
13.4 566
13.42 539
13.44 600
13.46 596
13.48 590
13.5 591
13.52 593
13.54 571
13.56 535
13.58 560
13.6 641
13.62 569
13.64 579
13.66 564
13.68 604
13.7 600
13.72 567
13.74 596
13.76 596
13.78 579
13.8 596
13.82 597
13.84 567
13.86 586
13.88 572
13.9 606
13.92 590
13.94 588
13.96 573
13.98 603
14 578
14.02 584
14.04 576
14.06 592
14.08 585
14.1 586
14.12 615
14.14 603
14.16 600
14.18 591
14.2 627
14.22 594
14.24 664
14.26 633
14.28 647
14.3 634
14.32 605
14.34 633
14.36 611
14.38 601
14.4 570
14.42 642
14.44 574
14.46 595
14.48 602
14.5 640
14.52 626
14.54 587
14.56 594
14.58 575
14.6 619
14.62 584
14.64 613
14.66 632
14.68 616
14.7 636
14.72 625
14.74 617
14.76 601
14.78 603
14.8 646
14.82 592
14.84 607
14.86 621
14.88 618
14.9 672
14.92 637
14.94 663
14.96 617
14.98 634
15 626
15.02 644
15.04 658
15.06 658
15.08 626
15.1 626
15.12 628
15.14 603
15.16 615
15.18 653
15.2 615
15.22 636
15.24 585
15.26 631
15.28 660
15.3 652
15.32 625
15.34 681
15.36 667
15.38 611
15.4 621
15.42 613
15.44 655
15.46 674
15.48 720
15.5 675
15.52 671
15.54 668
15.56 647
15.58 624
15.6 695
15.62 633
15.64 630
15.66 669
15.68 632
15.7 655
15.72 641
15.74 705
15.76 693
15.78 672
15.8 677
15.82 698
15.84 702
15.86 677
15.88 694
15.9 749
15.92 680
15.94 661
15.96 666
15.98 670
16 657
16.02 722
16.04 713
16.06 709
16.08 691
16.1 688
16.12 696
16.14 703
16.16 716
16.18 711
16.2 712
16.22 706
16.24 703
16.26 688
16.28 710
16.3 657
16.32 759
16.34 728
16.36 738
16.38 730
16.4 690
16.42 716
16.44 716
16.46 699
16.48 734
16.5 687
16.52 694
16.54 729
16.56 762
16.58 755
16.6 749
16.62 747
16.64 731
16.66 708
16.68 720
16.7 759
16.72 721
16.74 784
16.76 742
16.78 712
16.8 761
16.82 775
16.84 770
16.86 752
16.88 747
16.9 792
16.92 801
16.94 731
16.96 752
16.98 781
17 806
17.02 744
17.04 807
17.06 780
17.08 816
17.1 817
17.12 766
17.14 820
17.16 774
17.18 764
17.2 799
17.22 772
17.24 755
17.26 741
17.28 807
17.3 844
17.32 825
17.34 789
17.36 811
17.38 853
17.4 826
17.42 784
17.44 785
17.46 826
17.48 869
17.5 829
17.52 819
17.54 818
17.56 836
17.58 840
17.6 826
17.62 825
17.64 808
17.66 912
17.68 828
17.7 794
17.72 840
17.74 843
17.76 863
17.78 873
17.8 858
17.82 882
17.84 882
17.86 817
17.88 839
17.9 904
17.92 879
17.94 822
17.96 895
17.98 917
18 818
18.02 818
18.04 881
18.06 886
18.08 910
18.1 891
18.12 872
18.14 884
18.16 883
18.18 933
18.2 946
18.22 927
18.24 900
18.26 896
18.28 926
18.3 914
18.32 899
18.34 881
18.36 871
18.38 915
18.4 900
18.42 924
18.44 926
18.46 917
18.48 910
18.5 934
18.52 951
18.54 919
18.56 933
18.58 935
18.6 919
18.62 897
18.64 929
18.66 940
18.68 923
18.7 911
18.72 973
18.74 921
18.76 975
18.78 998
18.8 980
18.82 989
18.84 957
18.86 914
18.88 969
18.9 974
18.92 1005
18.94 993
18.96 991
18.98 977
19 929
19.02 1009
19.04 978
19.06 966
19.08 1006
19.1 1003
19.12 1028
19.14 988
19.16 977
19.18 1007
19.2 1000
19.22 1013
19.24 1023
19.26 993
19.28 1041
19.3 1043
19.32 1012
19.34 1083
19.36 989
19.38 1062
19.4 1072
19.42 1069
19.44 996
19.46 1084
19.48 1054
19.5 1070
19.52 1117
19.54 1056
19.56 1111
19.58 1115
19.6 1109
19.62 1038
19.64 1113
19.66 1078
19.68 1054
19.7 1087
19.72 1113
19.74 1061
19.76 1067
19.78 1115
19.8 1129
19.82 1126
19.84 1130
19.86 1054
19.88 1153
19.9 1108
19.92 1045
19.94 1066
19.96 1066
19.98 1147
20 1088