File: xrd-UiO-67/pxrddata/39-8.ASC
3 2455
3.02 2374
3.04 2158
3.06 2092
3.08 1935
3.1 1888
3.12 1762
3.14 1837
3.16 1731
3.18 1797
3.2 1698
3.22 1686
3.24 1698
3.26 1596
3.28 1604
3.3 1581
3.32 1605
3.34 1552
3.36 1605
3.38 1601
3.4 1539
3.42 1562
3.44 1512
3.46 1445
3.48 1467
3.5 1458
3.52 1442
3.54 1432
3.56 1413
3.58 1442
3.6 1343
3.62 1335
3.64 1434
3.66 1428
3.68 1390
3.7 1347
3.72 1353
3.74 1377
3.76 1292
3.78 1295
3.8 1314
3.82 1319
3.84 1296
3.86 1205
3.88 1288
3.9 1286
3.92 1258
3.94 1178
3.96 1199
3.98 1229
4 1236
4.02 1242
4.04 1220
4.06 1264
4.08 1134
4.1 1171
4.12 1161
4.14 1158
4.16 1158
4.18 1111
4.2 1140
4.22 1111
4.24 1149
4.26 1166
4.28 1121
4.3 1145
4.32 1091
4.34 1180
4.36 1058
4.38 1117
4.4 1122
4.42 1076
4.44 1091
4.46 1066
4.48 1046
4.5 1063
4.52 1054
4.54 1118
4.56 1057
4.58 1081
4.6 1067
4.62 1047
4.64 1101
4.66 1075
4.68 1109
4.7 1022
4.72 1074
4.74 1089
4.76 1069
4.78 1081
4.8 1041
4.82 1077
4.84 1095
4.86 1070
4.88 1044
4.9 1064
4.92 1144
4.94 1152
4.96 1098
4.98 1167
5 1200
5.02 1109
5.04 1125
5.06 1178
5.08 1173
5.1 1223
5.12 1260
5.14 1330
5.16 1328
5.18 1355
5.2 1363
5.22 1459
5.24 1534
5.26 1593
5.28 1704
5.3 1822
5.32 1907
5.34 2003
5.36 2175
5.38 2472
5.4 2697
5.42 3087
5.44 3177
5.46 2609
5.48 2118
5.5 1771
5.52 1685
5.54 1578
5.56 1577
5.58 1498
5.6 1469
5.62 1411
5.64 1475
5.66 1475
5.68 1552
5.7 1484
5.72 1482
5.74 1499
5.76 1424
5.78 1382
5.8 1305
5.82 1264
5.84 1186
5.86 1133
5.88 1071
5.9 1041
5.92 990
5.94 990
5.96 986
5.98 870
6 922
6.02 940
6.04 926
6.06 825
6.08 842
6.1 847
6.12 820
6.14 843
6.16 866
6.18 855
6.2 863
6.22 880
6.24 856
6.26 803
6.28 797
6.3 826
6.32 828
6.34 852
6.36 799
6.38 818
6.4 790
6.42 777
6.44 855
6.46 836
6.48 776
6.5 842
6.52 727
6.54 792
6.56 801
6.58 783
6.6 800
6.62 775
6.64 761
6.66 797
6.68 763
6.7 788
6.72 780
6.74 813
6.76 782
6.78 830
6.8 794
6.82 783
6.84 725
6.86 798
6.88 744
6.9 784
6.92 723
6.94 724
6.96 742
6.98 723
7 810
7.02 741
7.04 753
7.06 803
7.08 743
7.1 714
7.12 743
7.14 760
7.16 765
7.18 744
7.2 732
7.22 721
7.24 735
7.26 710
7.28 711
7.3 703
7.32 695
7.34 725
7.36 724
7.38 677
7.4 670
7.42 666
7.44 704
7.46 716
7.48 717
7.5 656
7.52 694
7.54 679
7.56 714
7.58 658
7.6 715
7.62 722
7.64 706
7.66 693
7.68 662
7.7 698
7.72 672
7.74 715
7.76 675
7.78 699
7.8 671
7.82 673
7.84 668
7.86 697
7.88 733
7.9 685
7.92 748
7.94 683
7.96 724
7.98 695
8 684
8.02 675
8.04 702
8.06 654
8.08 670
8.1 722
8.12 654
8.14 687
8.16 680
8.18 683
8.2 710
8.22 685
8.24 674
8.26 664
8.28 674
8.3 671
8.32 658
8.34 674
8.36 643
8.38 666
8.4 678
8.42 640
8.44 661
8.46 665
8.48 656
8.5 691
8.52 692
8.54 680
8.56 647
8.58 635
8.6 637
8.62 616
8.64 675
8.66 612
8.68 618
8.7 657
8.72 660
8.74 661
8.76 670
8.78 679
8.8 692
8.82 669
8.84 678
8.86 680
8.88 634
8.9 630
8.92 670
8.94 659
8.96 668
8.98 656
9 632
9.02 695
9.04 696
9.06 752
9.08 729
9.1 766
9.12 731
9.14 776
9.16 833
9.18 783
9.2 816
9.22 907
9.24 913
9.26 966
9.28 1062
9.3 1123
9.32 1279
9.34 1532
9.36 1473
9.38 1197
9.4 959
9.42 815
9.44 723
9.46 696
9.48 683
9.5 692
9.52 695
9.54 690
9.56 666
9.58 653
9.6 644
9.62 650
9.64 603
9.66 639
9.68 646
9.7 642
9.72 611
9.74 645
9.76 626
9.78 649
9.8 658
9.82 645
9.84 634
9.86 626
9.88 645
9.9 653
9.92 627
9.94 594
9.96 653
9.98 638
10 626
10.02 647
10.04 644
10.06 676
10.08 676
10.1 649
10.12 675
10.14 618
10.16 639
10.18 625
10.2 647
10.22 661
10.24 640
10.26 636
10.28 644
10.3 637
10.32 624
10.34 642
10.36 662
10.38 612
10.4 610
10.42 635
10.44 598
10.46 626
10.48 613
10.5 711
10.52 691
10.54 627
10.56 653
10.58 647
10.6 688
10.62 682
10.64 694
10.66 692
10.68 774
10.7 773
10.72 789
10.74 867
10.76 932
10.78 1043
10.8 990
10.82 945
10.84 817
10.86 780
10.88 769
10.9 766
10.92 777
10.94 750
10.96 760
10.98 735
11 762
11.02 694
11.04 642
11.06 667
11.08 636
11.1 616
11.12 616
11.14 608
11.16 594
11.18 621
11.2 611
11.22 581
11.24 599
11.26 583
11.28 582
11.3 630
11.32 616
11.34 641
11.36 592
11.38 581
11.4 587
11.42 601
11.44 622
11.46 593
11.48 616
11.5 595
11.52 618
11.54 634
11.56 605
11.58 597
11.6 594
11.62 636
11.64 573
11.66 588
11.68 609
11.7 609
11.72 580
11.74 593
11.76 580
11.78 574
11.8 595
11.82 570
11.84 590
11.86 597
11.88 560
11.9 561
11.92 605
11.94 627
11.96 595
11.98 596
12 582
12.02 608
12.04 604
12.06 569
12.08 584
12.1 625
12.12 646
12.14 628
12.16 606
12.18 590
12.2 607
12.22 633
12.24 608
12.26 660
12.28 637
12.3 660
12.32 615
12.34 641
12.36 607
12.38 593
12.4 616
12.42 580
12.44 633
12.46 590
12.48 576
12.5 618
12.52 593
12.54 583
12.56 578
12.58 574
12.6 612
12.62 616
12.64 558
12.66 601
12.68 611
12.7 569
12.72 629
12.74 632
12.76 590
12.78 609
12.8 622
12.82 569
12.84 552
12.86 595
12.88 594
12.9 625
12.92 619
12.94 629
12.96 605
12.98 575
13 670
13.02 604
13.04 633
13.06 630
13.08 608
13.1 650
13.12 637
13.14 631
13.16 558
13.18 585
13.2 606
13.22 603
13.24 570
13.26 615
13.28 607
13.3 640
13.32 644
13.34 631
13.36 631
13.38 655
13.4 654
13.42 632
13.44 626
13.46 607
13.48 614
13.5 578
13.52 591
13.54 633
13.56 660
13.58 621
13.6 636
13.62 597
13.64 614
13.66 651
13.68 644
13.7 640
13.72 634
13.74 626
13.76 644
13.78 627
13.8 603
13.82 633
13.84 612
13.86 638
13.88 664
13.9 604
13.92 590
13.94 630
13.96 628
13.98 581
14 665
14.02 650
14.04 688
14.06 626
14.08 677
14.1 638
14.12 665
14.14 653
14.16 625
14.18 662
14.2 665
14.22 647
14.24 602
14.26 712
14.28 690
14.3 743
14.32 654
14.34 700
14.36 689
14.38 659
14.4 663
14.42 681
14.44 660
14.46 699
14.48 655
14.5 724
14.52 645
14.54 639
14.56 634
14.58 633
14.6 659
14.62 695
14.64 671
14.66 647
14.68 662
14.7 687
14.72 696
14.74 668
14.76 695
14.78 692
14.8 692
14.82 648
14.84 668
14.86 696
14.88 731
14.9 640
14.92 652
14.94 666
14.96 712
14.98 651
15 716
15.02 718
15.04 696
15.06 672
15.08 672
15.1 667
15.12 654
15.14 729
15.16 667
15.18 651
15.2 661
15.22 684
15.24 705
15.26 664
15.28 671
15.3 688
15.32 627
15.34 692
15.36 703
15.38 678
15.4 669
15.42 701
15.44 675
15.46 693
15.48 722
15.5 710
15.52 713
15.54 725
15.56 724
15.58 686
15.6 680
15.62 680
15.64 698
15.66 729
15.68 709
15.7 722
15.72 713
15.74 740
15.76 705
15.78 726
15.8 738
15.82 685
15.84 746
15.86 695
15.88 741
15.9 739
15.92 750
15.94 719
15.96 695
15.98 703
16 718
16.02 697
16.04 748
16.06 838
16.08 750
16.1 722
16.12 731
16.14 760
16.16 796
16.18 710
16.2 794
16.22 781
16.24 733
16.26 753
16.28 793
16.3 796
16.32 771
16.34 778
16.36 763
16.38 757
16.4 767
16.42 754
16.44 788
16.46 751
16.48 772
16.5 768
16.52 809
16.54 726
16.56 753
16.58 750
16.6 741
16.62 795
16.64 819
16.66 775
16.68 773
16.7 742
16.72 733
16.74 782
16.76 791
16.78 763
16.8 816
16.82 811
16.84 799
16.86 816
16.88 792
16.9 796
16.92 844
16.94 834
16.96 825
16.98 773
17 840
17.02 847
17.04 834
17.06 847
17.08 801
17.1 834
17.12 858
17.14 842
17.16 857
17.18 835
17.2 869
17.22 821
17.24 906
17.26 852
17.28 881
17.3 885
17.32 823
17.34 847
17.36 929
17.38 866
17.4 875
17.42 860
17.44 917
17.46 794
17.48 884
17.5 905
17.52 893
17.54 815
17.56 898
17.58 892
17.6 891
17.62 941
17.64 854
17.66 890
17.68 858
17.7 921
17.72 890
17.74 891
17.76 916
17.78 909
17.8 887
17.82 869
17.84 875
17.86 893
17.88 883
17.9 872
17.92 895
17.94 900
17.96 935
17.98 899
18 928
18.02 897
18.04 919
18.06 876
18.08 901
18.1 906
18.12 921
18.14 919
18.16 933
18.18 931
18.2 943
18.22 943
18.24 924
18.26 948
18.28 917
18.3 959
18.32 942
18.34 898
18.36 969
18.38 949
18.4 958
18.42 933
18.44 937
18.46 1018
18.48 989
18.5 926
18.52 990
18.54 994
18.56 982
18.58 944
18.6 974
18.62 995
18.64 979
18.66 982
18.68 1067
18.7 1066
18.72 1102
18.74 1048
18.76 985
18.78 1056
18.8 1023
18.82 1017
18.84 1016
18.86 987
18.88 967
18.9 1029
18.92 1001
18.94 1028
18.96 1037
18.98 1044
19 1057
19.02 1066
19.04 1079
19.06 1081
19.08 1057
19.1 1051
19.12 1097
19.14 1120
19.16 1130
19.18 1078
19.2 1045
19.22 1108
19.24 1123
19.26 1055
19.28 1071
19.3 1087
19.32 1125
19.34 1098
19.36 1154
19.38 1160
19.4 1096
19.42 1133
19.44 1218
19.46 1195
19.48 1208
19.5 1165
19.52 1173
19.54 1220
19.56 1198
19.58 1198
19.6 1241
19.62 1099
19.64 1153
19.66 1110
19.68 1115
19.7 1155
19.72 1142
19.74 1155
19.76 1116
19.78 1080
19.8 1095
19.82 1212
19.84 1095
19.86 1150
19.88 1119
19.9 1091
19.92 1128
19.94 1123
19.96 1068
19.98 1118
20 1157