File: xrd-UiO-67/pxrddata/39-9.ASC
3 3169
3.02 2832
3.04 2838
3.06 2576
3.08 2515
3.1 2538
3.12 2366
3.14 2374
3.16 2287
3.18 2295
3.2 2204
3.22 2169
3.24 2183
3.26 2176
3.28 2106
3.3 2105
3.32 2102
3.34 2059
3.36 2116
3.38 1942
3.4 2026
3.42 1992
3.44 1949
3.46 1915
3.48 1911
3.5 1932
3.52 1932
3.54 1864
3.56 1817
3.58 1860
3.6 1791
3.62 1833
3.64 1873
3.66 1819
3.68 1700
3.7 1688
3.72 1720
3.74 1656
3.76 1699
3.78 1692
3.8 1658
3.82 1640
3.84 1588
3.86 1585
3.88 1529
3.9 1649
3.92 1563
3.94 1589
3.96 1533
3.98 1618
4 1506
4.02 1502
4.04 1500
4.06 1469
4.08 1511
4.1 1433
4.12 1467
4.14 1438
4.16 1478
4.18 1409
4.2 1395
4.22 1404
4.24 1426
4.26 1376
4.28 1365
4.3 1342
4.32 1321
4.34 1355
4.36 1380
4.38 1316
4.4 1273
4.42 1384
4.44 1325
4.46 1342
4.48 1302
4.5 1310
4.52 1291
4.54 1295
4.56 1286
4.58 1292
4.6 1326
4.62 1278
4.64 1324
4.66 1252
4.68 1262
4.7 1303
4.72 1343
4.74 1328
4.76 1405
4.78 1312
4.8 1353
4.82 1388
4.84 1401
4.86 1388
4.88 1417
4.9 1436
4.92 1401
4.94 1456
4.96 1446
4.98 1463
5 1505
5.02 1507
5.04 1571
5.06 1643
5.08 1645
5.1 1703
5.12 1742
5.14 1809
5.16 1893
5.18 2016
5.2 2083
5.22 2172
5.24 2316
5.26 2571
5.28 2570
5.3 2900
5.32 3114
5.34 3381
5.36 3869
5.38 4441
5.4 5192
5.42 5488
5.44 4360
5.46 3115
5.48 2561
5.5 2158
5.52 1988
5.54 1943
5.56 1795
5.58 1615
5.6 1550
5.62 1462
5.64 1448
5.66 1421
5.68 1385
5.7 1289
5.72 1290
5.74 1259
5.76 1178
5.78 1211
5.8 1150
5.82 1110
5.84 1113
5.86 1081
5.88 1112
5.9 1008
5.92 1031
5.94 983
5.96 960
5.98 997
6 972
6.02 962
6.04 1011
6.06 900
6.08 1002
6.1 897
6.12 939
6.14 914
6.16 911
6.18 860
6.2 870
6.22 923
6.24 921
6.26 908
6.28 859
6.3 884
6.32 901
6.34 892
6.36 887
6.38 893
6.4 846
6.42 887
6.44 873
6.46 835
6.48 810
6.5 791
6.52 835
6.54 799
6.56 859
6.58 895
6.6 816
6.62 849
6.64 835
6.66 864
6.68 884
6.7 824
6.72 847
6.74 784
6.76 820
6.78 846
6.8 873
6.82 860
6.84 808
6.86 772
6.88 843
6.9 796
6.92 811
6.94 848
6.96 854
6.98 846
7 810
7.02 811
7.04 922
7.06 815
7.08 811
7.1 815
7.12 837
7.14 849
7.16 814
7.18 812
7.2 871
7.22 852
7.24 816
7.26 862
7.28 890
7.3 896
7.32 887
7.34 885
7.36 916
7.38 887
7.4 933
7.42 987
7.44 964
7.46 918
7.48 926
7.5 968
7.52 987
7.54 1033
7.56 1070
7.58 1096
7.6 1063
7.62 1100
7.64 1100
7.66 1101
7.68 1150
7.7 1191
7.72 1223
7.74 1175
7.76 1237
7.78 1250
7.8 1230
7.82 1187
7.84 1218
7.86 1194
7.88 1259
7.9 1199
7.92 1275
7.94 1140
7.96 1310
7.98 1234
8 1184
8.02 1175
8.04 1160
8.06 1132
8.08 1111
8.1 1065
8.12 1047
8.14 1078
8.16 1026
8.18 1000
8.2 1000
8.22 1032
8.24 921
8.26 930
8.28 944
8.3 976
8.32 928
8.34 918
8.36 898
8.38 922
8.4 882
8.42 931
8.44 923
8.46 916
8.48 881
8.5 870
8.52 896
8.54 841
8.56 883
8.58 888
8.6 875
8.62 970
8.64 873
8.66 853
8.68 979
8.7 889
8.72 931
8.74 924
8.76 985
8.78 988
8.8 1050
8.82 1047
8.84 1114
8.86 1147
8.88 1242
8.9 1253
8.92 1415
8.94 1451
8.96 1458
8.98 1487
9 1451
9.02 1470
9.04 1391
9.06 1313
9.08 1214
9.1 1312
9.12 1268
9.14 1277
9.16 1190
9.18 1264
9.2 1291
9.22 1238
9.24 1286
9.26 1378
9.28 1390
9.3 1663
9.32 1781
9.34 1874
9.36 1711
9.38 1410
9.4 1176
9.42 1049
9.44 954
9.46 982
9.48 937
9.5 897
9.52 821
9.54 853
9.56 795
9.58 746
9.6 791
9.62 778
9.64 812
9.66 778
9.68 776
9.7 777
9.72 835
9.74 801
9.76 788
9.78 761
9.8 844
9.82 837
9.84 816
9.86 838
9.88 861
9.9 847
9.92 853
9.94 870
9.96 913
9.98 901
10 903
10.02 829
10.04 839
10.06 802
10.08 840
10.1 784
10.12 805
10.14 788
10.16 814
10.18 781
10.2 781
10.22 791
10.24 769
10.26 792
10.28 794
10.3 818
10.32 814
10.34 805
10.36 822
10.38 823
10.4 816
10.42 798
10.44 831
10.46 819
10.48 835
10.5 820
10.52 826
10.54 793
10.56 824
10.58 885
10.6 876
10.62 882
10.64 875
10.66 858
10.68 918
10.7 1016
10.72 1059
10.74 1155
10.76 1246
10.78 1253
10.8 1200
10.82 1102
10.84 1064
10.86 978
10.88 887
10.9 914
10.92 825
10.94 781
10.96 765
10.98 800
11 759
11.02 773
11.04 726
11.06 744
11.08 701
11.1 691
11.12 680
11.14 684
11.16 696
11.18 699
11.2 687
11.22 653
11.24 694
11.26 659
11.28 644
11.3 647
11.32 670
11.34 600
11.36 636
11.38 610
11.4 614
11.42 635
11.44 655
11.46 656
11.48 591
11.5 606
11.52 601
11.54 625
11.56 604
11.58 572
11.6 600
11.62 608
11.64 591
11.66 600
11.68 631
11.7 644
11.72 592
11.74 581
11.76 623
11.78 552
11.8 575
11.82 606
11.84 628
11.86 558
11.88 595
11.9 591
11.92 548
11.94 631
11.96 622
11.98 598
12 633
12.02 687
12.04 610
12.06 582
12.08 684
12.1 641
12.12 652
12.14 669
12.16 724
12.18 761
12.2 746
12.22 801
12.24 847
12.26 926
12.28 926
12.3 889
12.32 869
12.34 867
12.36 841
12.38 827
12.4 819
12.42 821
12.44 746
12.46 719
12.48 695
12.5 724
12.52 743
12.54 781
12.56 700
12.58 791
12.6 841
12.62 810
12.64 785
12.66 740
12.68 776
12.7 715
12.72 651
12.74 715
12.76 645
12.78 649
12.8 663
12.82 647
12.84 644
12.86 697
12.88 686
12.9 674
12.92 698
12.94 649
12.96 620
12.98 677
13 642
13.02 667
13.04 621
13.06 647
13.08 640
13.1 612
13.12 648
13.14 659
13.16 626
13.18 600
13.2 620
13.22 662
13.24 698
13.26 681
13.28 645
13.3 636
13.32 639
13.34 639
13.36 683
13.38 692
13.4 645
13.42 654
13.44 656
13.46 677
13.48 658
13.5 649
13.52 650
13.54 620
13.56 630
13.58 611
13.6 571
13.62 645
13.64 615
13.66 596
13.68 619
13.7 583
13.72 623
13.74 584
13.76 600
13.78 619
13.8 659
13.82 596
13.84 588
13.86 603
13.88 640
13.9 611
13.92 624
13.94 628
13.96 603
13.98 578
14 626
14.02 618
14.04 602
14.06 608
14.08 583
14.1 634
14.12 647
14.14 607
14.16 679
14.18 632
14.2 623
14.22 653
14.24 632
14.26 635
14.28 681
14.3 657
14.32 629
14.34 656
14.36 656
14.38 674
14.4 627
14.42 643
14.44 614
14.46 656
14.48 651
14.5 577
14.52 584
14.54 657
14.56 612
14.58 618
14.6 637
14.62 633
14.64 626
14.66 620
14.68 644
14.7 614
14.72 566
14.74 643
14.76 664
14.78 647
14.8 626
14.82 626
14.84 666
14.86 615
14.88 562
14.9 634
14.92 623
14.94 606
14.96 600
14.98 598
15 648
15.02 635
15.04 612
15.06 618
15.08 646
15.1 617
15.12 619
15.14 631
15.16 621
15.18 615
15.2 638
15.22 619
15.24 621
15.26 627
15.28 606
15.3 625
15.32 605
15.34 631
15.36 592
15.38 610
15.4 612
15.42 613
15.44 624
15.46 601
15.48 628
15.5 647
15.52 590
15.54 620
15.56 594
15.58 670
15.6 652
15.62 597
15.64 662
15.66 663
15.68 688
15.7 644
15.72 670
15.74 666
15.76 678
15.78 666
15.8 673
15.82 664
15.84 652
15.86 656
15.88 646
15.9 684
15.92 648
15.94 651
15.96 641
15.98 682
16 692
16.02 630
16.04 646
16.06 677
16.08 703
16.1 708
16.12 675
16.14 666
16.16 649
16.18 711
16.2 670
16.22 672
16.24 674
16.26 629
16.28 698
16.3 691
16.32 694
16.34 685
16.36 661
16.38 655
16.4 701
16.42 696
16.44 718
16.46 718
16.48 698
16.5 718
16.52 683
16.54 731
16.56 725
16.58 721
16.6 727
16.62 730
16.64 701
16.66 736
16.68 720
16.7 678
16.72 713
16.74 698
16.76 733
16.78 777
16.8 700
16.82 712
16.84 676
16.86 705
16.88 719
16.9 748
16.92 760
16.94 761
16.96 817
16.98 762
17 776
17.02 772
17.04 782
17.06 752
17.08 785
17.1 748
17.12 737
17.14 800
17.16 790
17.18 770
17.2 758
17.22 762
17.24 728
17.26 758
17.28 772
17.3 765
17.32 751
17.34 786
17.36 781
17.38 810
17.4 794
17.42 743
17.44 729
17.46 788
17.48 772
17.5 829
17.52 780
17.54 773
17.56 786
17.58 826
17.6 815
17.62 846
17.64 753
17.66 835
17.68 759
17.7 750
17.72 779
17.74 818
17.76 816
17.78 818
17.8 829
17.82 844
17.84 843
17.86 807
17.88 795
17.9 807
17.92 789
17.94 809
17.96 776
17.98 798
18 818
18.02 833
18.04 860
18.06 816
18.08 853
18.1 845
18.12 809
18.14 814
18.16 834
18.18 869
18.2 849
18.22 805
18.24 885
18.26 859
18.28 810
18.3 888
18.32 837
18.34 864
18.36 864
18.38 845
18.4 868
18.42 868
18.44 813
18.46 847
18.48 919
18.5 904
18.52 922
18.54 912
18.56 918
18.58 929
18.6 874
18.62 949
18.64 937
18.66 980
18.68 998
18.7 966
18.72 915
18.74 914
18.76 938
18.78 954
18.8 942
18.82 935
18.84 923
18.86 870
18.88 854
18.9 942
18.92 938
18.94 899
18.96 938
18.98 958
19 917
19.02 961
19.04 933
19.06 990
19.08 946
19.1 921
19.12 967
19.14 1008
19.16 991
19.18 948
19.2 987
19.22 942
19.24 943
19.26 1007
19.28 973
19.3 970
19.32 983
19.34 1027
19.36 1032
19.38 1033
19.4 1052
19.42 1101
19.44 1158
19.46 1197
19.48 1100
19.5 1177
19.52 1169
19.54 1105
19.56 1082
19.58 1049
19.6 1040
19.62 1108
19.64 1053
19.66 1055
19.68 1029
19.7 1045
19.72 1041
19.74 1020
19.76 1009
19.78 1033
19.8 1049
19.82 1026
19.84 1030
19.86 1015
19.88 1033
19.9 1058
19.92 1082
19.94 1112
19.96 1027
19.98 1091
20 1091