File: xrd-UiO-67/pxrddata/4-31.ASC
3 1954
3.02 1773
3.04 1707
3.06 1545
3.08 1521
3.1 1441
3.12 1369
3.14 1378
3.16 1332
3.18 1351
3.2 1293
3.22 1252
3.24 1302
3.26 1286
3.28 1225
3.3 1231
3.32 1235
3.34 1267
3.36 1204
3.38 1227
3.4 1208
3.42 1131
3.44 1162
3.46 1151
3.48 1071
3.5 1172
3.52 1121
3.54 1105
3.56 1068
3.58 1087
3.6 1073
3.62 1109
3.64 1069
3.66 1051
3.68 1105
3.7 1042
3.72 1004
3.74 1057
3.76 1031
3.78 1021
3.8 1050
3.82 1027
3.84 1048
3.86 995
3.88 991
3.9 990
3.92 993
3.94 999
3.96 959
3.98 934
4 982
4.02 1011
4.04 924
4.06 938
4.08 958
4.1 877
4.12 985
4.14 942
4.16 930
4.18 916
4.2 933
4.22 952
4.24 904
4.26 904
4.28 986
4.3 943
4.32 934
4.34 966
4.36 929
4.38 971
4.4 925
4.42 909
4.44 962
4.46 905
4.48 907
4.5 974
4.52 954
4.54 926
4.56 954
4.58 877
4.6 997
4.62 949
4.64 987
4.66 902
4.68 936
4.7 985
4.72 950
4.74 1012
4.76 953
4.78 953
4.8 948
4.82 966
4.84 949
4.86 929
4.88 973
4.9 987
4.92 1014
4.94 957
4.96 1061
4.98 1064
5 1077
5.02 1044
5.04 1015
5.06 1076
5.08 1167
5.1 1116
5.12 1166
5.14 1165
5.16 1188
5.18 1208
5.2 1255
5.22 1254
5.24 1242
5.26 1332
5.28 1353
5.3 1378
5.32 1338
5.34 1416
5.36 1512
5.38 1513
5.4 1572
5.42 1733
5.44 1753
5.46 1772
5.48 1846
5.5 1968
5.52 2056
5.54 2174
5.56 2305
5.58 2427
5.6 2549
5.62 2745
5.64 2945
5.66 3266
5.68 3724
5.7 4379
5.72 5048
5.74 5364
5.76 4815
5.78 4020
5.8 3253
5.82 2442
5.84 1996
5.86 1704
5.88 1741
5.9 1709
5.92 1695
5.94 1754
5.96 1718
5.98 1681
6 1728
6.02 1679
6.04 1659
6.06 1640
6.08 1511
6.1 1392
6.12 1240
6.14 1197
6.16 1195
6.18 1093
6.2 1185
6.22 1277
6.24 1236
6.26 1238
6.28 1276
6.3 1358
6.32 1353
6.34 1383
6.36 1429
6.38 1536
6.4 1541
6.42 1559
6.44 1697
6.46 1764
6.48 1811
6.5 1957
6.52 2167
6.54 2241
6.56 2481
6.58 2899
6.6 3167
6.62 3372
6.64 3213
6.66 2756
6.68 2255
6.7 1803
6.72 1532
6.74 1377
6.76 1356
6.78 1373
6.8 1388
6.82 1387
6.84 1440
6.86 1353
6.88 1402
6.9 1326
6.92 1356
6.94 1310
6.96 1309
6.98 1289
7 1230
7.02 1127
7.04 1157
7.06 1181
7.08 1182
7.1 1175
7.12 1096
7.14 1135
7.16 1162
7.18 1167
7.2 1178
7.22 1187
7.24 1158
7.26 1166
7.28 1148
7.3 1180
7.32 1157
7.34 1177
7.36 1129
7.38 1108
7.4 1120
7.42 1141
7.44 1062
7.46 1081
7.48 1046
7.5 1075
7.52 1097
7.54 1069
7.56 1036
7.58 984
7.6 1034
7.62 970
7.64 939
7.66 945
7.68 947
7.7 948
7.72 851
7.74 872
7.76 921
7.78 904
7.8 834
7.82 843
7.84 886
7.86 867
7.88 834
7.9 828
7.92 830
7.94 841
7.96 767
7.98 818
8 840
8.02 822
8.04 851
8.06 860
8.08 819
8.1 791
8.12 810
8.14 781
8.16 806
8.18 775
8.2 788
8.22 763
8.24 768
8.26 818
8.28 792
8.3 829
8.32 776
8.34 788
8.36 795
8.38 787
8.4 821
8.42 774
8.44 809
8.46 817
8.48 786
8.5 821
8.52 824
8.54 800
8.56 796
8.58 741
8.6 769
8.62 824
8.64 732
8.66 804
8.68 762
8.7 786
8.72 797
8.74 802
8.76 786
8.78 816
8.8 787
8.82 871
8.84 845
8.86 841
8.88 811
8.9 885
8.92 901
8.94 878
8.96 886
8.98 906
9 889
9.02 997
9.04 962
9.06 1011
9.08 1051
9.1 1056
9.12 1104
9.14 1161
9.16 1257
9.18 1281
9.2 1316
9.22 1376
9.24 1563
9.26 1658
9.28 1851
9.3 2011
9.32 2387
9.34 2584
9.36 2490
9.38 2338
9.4 1955
9.42 1441
9.44 1159
9.46 1058
9.48 994
9.5 992
9.52 876
9.54 916
9.56 979
9.58 979
9.6 979
9.62 919
9.64 907
9.66 940
9.68 914
9.7 796
9.72 846
9.74 809
9.76 793
9.78 828
9.8 763
9.82 822
9.84 783
9.86 787
9.88 761
9.9 777
9.92 805
9.94 768
9.96 824
9.98 757
10 726
10.02 747
10.04 770
10.06 746
10.08 752
10.1 763
10.12 761
10.14 720
10.16 721
10.18 750
10.2 706
10.22 752
10.24 744
10.26 771
10.28 779
10.3 761
10.32 784
10.34 815
10.36 748
10.38 791
10.4 786
10.42 791
10.44 823
10.46 803
10.48 788
10.5 812
10.52 763
10.54 820
10.56 866
10.58 922
10.6 876
10.62 891
10.64 967
10.66 944
10.68 959
10.7 1005
10.72 1045
10.74 1129
10.76 1084
10.78 1172
10.8 1212
10.82 1308
10.84 1339
10.86 1493
10.88 1626
10.9 1831
10.92 2024
10.94 2316
10.96 2463
10.98 2427
11 2042
11.02 1644
11.04 1289
11.06 1104
11.08 1043
11.1 967
11.12 997
11.14 947
11.16 978
11.18 990
11.2 1027
11.22 1018
11.24 1014
11.26 1085
11.28 1133
11.3 1102
11.32 1126
11.34 1163
11.36 1210
11.38 1311
11.4 1400
11.42 1514
11.44 1596
11.46 1634
11.48 1502
11.5 1243
11.52 1058
11.54 912
11.56 883
11.58 857
11.6 849
11.62 852
11.64 790
11.66 831
11.68 821
11.7 875
11.72 837
11.74 884
11.76 817
11.78 821
11.8 845
11.82 853
11.84 826
11.86 842
11.88 836
11.9 860
11.92 840
11.94 852
11.96 805
11.98 810
12 801
12.02 771
12.04 807
12.06 821
12.08 779
12.1 810
12.12 801
12.14 788
12.16 763
12.18 805
12.2 764
12.22 771
12.24 779
12.26 809
12.28 771
12.3 774
12.32 781
12.34 751
12.36 797
12.38 783
12.4 725
12.42 724
12.44 780
12.46 739
12.48 800
12.5 771
12.52 739
12.54 747
12.56 727
12.58 813
12.6 767
12.62 791
12.64 791
12.66 789
12.68 780
12.7 784
12.72 740
12.74 778
12.76 745
12.78 755
12.8 763
12.82 767
12.84 785
12.86 725
12.88 806
12.9 803
12.92 789
12.94 790
12.96 872
12.98 857
13 820
13.02 796
13.04 865
13.06 876
13.08 824
13.1 840
13.12 874
13.14 912
13.16 979
13.18 977
13.2 1009
13.22 1081
13.24 1029
13.26 922
13.28 903
13.3 853
13.32 848
13.34 808
13.36 793
13.38 823
13.4 817
13.42 790
13.44 779
13.46 851
13.48 798
13.5 784
13.52 760
13.54 804
13.56 854
13.58 848
13.6 809
13.62 792
13.64 800
13.66 794
13.68 793
13.7 828
13.72 773
13.74 749
13.76 811
13.78 849
13.8 852
13.82 815
13.84 819
13.86 849
13.88 821
13.9 865
13.92 879
13.94 870
13.96 885
13.98 833
14 853
14.02 867
14.04 860
14.06 859
14.08 813
14.1 841
14.12 857
14.14 805
14.16 877
14.18 840
14.2 844
14.22 901
14.24 891
14.26 909
14.28 924
14.3 985
14.32 972
14.34 989
14.36 979
14.38 1011
14.4 1086
14.42 1058
14.44 993
14.46 987
14.48 968
14.5 884
14.52 901
14.54 854
14.56 879
14.58 879
14.6 838
14.62 841
14.64 894
14.66 877
14.68 899
14.7 936
14.72 918
14.74 928
14.76 913
14.78 950
14.8 846
14.82 892
14.84 887
14.86 918
14.88 851
14.9 836
14.92 832
14.94 886
14.96 838
14.98 868
15 850
15.02 861
15.04 862
15.06 914
15.08 904
15.1 889
15.12 851
15.14 831
15.16 886
15.18 860
15.2 862
15.22 863
15.24 866
15.26 930
15.28 915
15.3 944
15.32 908
15.34 852
15.36 938
15.38 909
15.4 932
15.42 933
15.44 876
15.46 870
15.48 916
15.5 985
15.52 919
15.54 896
15.56 968
15.58 931
15.6 923
15.62 949
15.64 937
15.66 910
15.68 939
15.7 932
15.72 935
15.74 926
15.76 995
15.78 890
15.8 955
15.82 942
15.84 938
15.86 968
15.88 952
15.9 944
15.92 982
15.94 945
15.96 949
15.98 988
16 995
16.02 894
16.04 943
16.06 957
16.08 960
16.1 992
16.12 1019
16.14 963
16.16 1008
16.18 961
16.2 971
16.22 955
16.24 982
16.26 961
16.28 980
16.3 1050
16.32 978
16.34 1008
16.36 1025
16.38 1045
16.4 992
16.42 1060
16.44 1014
16.46 1006
16.48 1003
16.5 991
16.52 1020
16.54 1045
16.56 1076
16.58 1042
16.6 1002
16.62 1039
16.64 1048
16.66 1066
16.68 1046
16.7 1035
16.72 1076
16.74 1050
16.76 1002
16.78 1079
16.8 1140
16.82 1152
16.84 1101
16.86 1111
16.88 1040
16.9 1093
16.92 1102
16.94 1100
16.96 1108
16.98 1132
17 1162
17.02 1145
17.04 1154
17.06 1198
17.08 1153
17.1 1186
17.12 1303
17.14 1272
17.16 1320
17.18 1278
17.2 1345
17.22 1293
17.24 1188
17.26 1234
17.28 1138
17.3 1191
17.32 1114
17.34 1174
17.36 1164
17.38 1169
17.4 1203
17.42 1183
17.44 1119
17.46 1179
17.48 1198
17.5 1172
17.52 1163
17.54 1198
17.56 1213
17.58 1132
17.6 1196
17.62 1146
17.64 1186
17.66 1212
17.68 1258
17.7 1168
17.72 1216
17.74 1205
17.76 1188
17.78 1199
17.8 1193
17.82 1221
17.84 1249
17.86 1168
17.88 1251
17.9 1213
17.92 1199
17.94 1164
17.96 1250
17.98 1242
18 1305
18.02 1259
18.04 1277
18.06 1208
18.08 1274
18.1 1265
18.12 1267
18.14 1290
18.16 1294
18.18 1275
18.2 1266
18.22 1289
18.24 1331
18.26 1262
18.28 1238
18.3 1257
18.32 1301
18.34 1210
18.36 1404
18.38 1333
18.4 1305
18.42 1331
18.44 1339
18.46 1366
18.48 1363
18.5 1366
18.52 1338
18.54 1319
18.56 1389
18.58 1424
18.6 1328
18.62 1332
18.64 1313
18.66 1388
18.68 1372
18.7 1343
18.72 1423
18.74 1465
18.76 1328
18.78 1396
18.8 1438
18.82 1384
18.84 1310
18.86 1395
18.88 1424
18.9 1371
18.92 1404
18.94 1377
18.96 1412
18.98 1424
19 1361
19.02 1416
19.04 1408
19.06 1331
19.08 1404
19.1 1368
19.12 1438
19.14 1484
19.16 1447
19.18 1383
19.2 1550
19.22 1480
19.24 1406
19.26 1558
19.28 1492
19.3 1547
19.32 1480
19.34 1562
19.36 1571
19.38 1555
19.4 1604
19.42 1629
19.44 1627
19.46 1700
19.48 1680
19.5 1882
19.52 1934
19.54 2030
19.56 2044
19.58 2067
19.6 2112
19.62 2009
19.64 1925
19.66 1769
19.68 1800
19.7 1803
19.72 1729
19.74 1856
19.76 1932
19.78 2066
19.8 2216
19.82 2345
19.84 2379
19.86 2456
19.88 2444
19.9 2195
19.92 2003
19.94 1807
19.96 1731
19.98 1574
20 1617
20.02 1574
20.04 1652
20.06 1607
20.08 1585
20.1 1543
20.12 1550
20.14 1523
20.16 1584
20.18 1530
20.2 1575
20.22 1605
20.24 1575
20.26 1595
20.28 1576
20.3 1494
20.32 1593
20.34 1476
20.36 1510
20.38 1577
20.4 1551
20.42 1562
20.44 1627
20.46 1528
20.48 1601
20.5 1663
20.52 1575
20.54 1575
20.56 1573
20.58 1559
20.6 1568
20.62 1598
20.64 1614
20.66 1544
20.68 1560
20.7 1601
20.72 1543
20.74 1570
20.76 1642
20.78 1605
20.8 1603
20.82 1595
20.84 1589
20.86 1555
20.88 1603
20.9 1546
20.92 1587
20.94 1645
20.96 1569
20.98 1647
21 1602
21.02 1629
21.04 1577
21.06 1617
21.08 1602
21.1 1586
21.12 1599
21.14 1549
21.16 1662
21.18 1627
21.2 1541
21.22 1638
21.24 1624
21.26 1611
21.28 1613
21.3 1548
21.32 1551
21.34 1605
21.36 1600
21.38 1596
21.4 1654
21.42 1544
21.44 1608
21.46 1649
21.48 1575
21.5 1547
21.52 1579
21.54 1592
21.56 1624
21.58 1547
21.6 1715
21.62 1668
21.64 1707
21.66 1736
21.68 1774
21.7 1755
21.72 1820
21.74 1872
21.76 1754
21.78 1676
21.8 1718
21.82 1698
21.84 1665
21.86 1581
21.88 1611
21.9 1590
21.92 1587
21.94 1613
21.96 1584
21.98 1629
22 1625
22.02 1529
22.04 1531
22.06 1594
22.08 1510
22.1 1487
22.12 1551
22.14 1574
22.16 1514
22.18 1517
22.2 1551
22.22 1568
22.24 1524
22.26 1546
22.28 1504
22.3 1502
22.32 1492
22.34 1507
22.36 1532
22.38 1483
22.4 1528
22.42 1494
22.44 1478
22.46 1431
22.48 1517
22.5 1513
22.52 1534
22.54 1507
22.56 1444
22.58 1435
22.6 1461
22.62 1500
22.64 1434
22.66 1436
22.68 1530
22.7 1459
22.72 1496
22.74 1480
22.76 1458
22.78 1457
22.8 1428
22.82 1462
22.84 1452
22.86 1502
22.88 1486
22.9 1534
22.92 1479
22.94 1492
22.96 1592
22.98 1543
23 1493
23.02 1429
23.04 1497
23.06 1389
23.08 1451
23.1 1458
23.12 1389
23.14 1397
23.16 1411
23.18 1378
23.2 1468
23.22 1415
23.24 1386
23.26 1417
23.28 1377
23.3 1440
23.32 1402
23.34 1415
23.36 1318
23.38 1370
23.4 1413
23.42 1403
23.44 1378
23.46 1360
23.48 1437
23.5 1501
23.52 1416
23.54 1496
23.56 1486
23.58 1561
23.6 1664
23.62 1813
23.64 1917
23.66 2058
23.68 2050
23.7 2032
23.72 1841
23.74 1711
23.76 1618
23.78 1538
23.8 1554
23.82 1417
23.84 1461
23.86 1376
23.88 1421
23.9 1515
23.92 1498
23.94 1436
23.96 1403
23.98 1451
24 1336
24.02 1360
24.04 1428
24.06 1363
24.08 1374
24.1 1316
24.12 1300
24.14 1253
24.16 1282
24.18 1303
24.2 1252
24.22 1293
24.24 1265
24.26 1291
24.28 1225
24.3 1327
24.32 1294
24.34 1233
24.36 1257
24.38 1236
24.4 1260
24.42 1246
24.44 1239
24.46 1255
24.48 1281
24.5 1254
24.52 1231
24.54 1230
24.56 1207
24.58 1204
24.6 1234
24.62 1268
24.64 1322
24.66 1258
24.68 1260
24.7 1237
24.72 1404
24.74 1424
24.76 1511
24.78 1549
24.8 1568
24.82 1603
24.84 1618
24.86 1541
24.88 1478
24.9 1408
24.92 1350
24.94 1233
24.96 1196
24.98 1217
25 1228
25.02 1206
25.04 1145
25.06 1179
25.08 1223
25.1 1196
25.12 1191
25.14 1174
25.16 1181
25.18 1197
25.2 1145
25.22 1222
25.24 1177
25.26 1197
25.28 1226
25.3 1214
25.32 1269
25.34 1287
25.36 1279
25.38 1280
25.4 1410
25.42 1508
25.44 1633
25.46 1692
25.48 1795
25.5 1856
25.52 1828
25.54 1638
25.56 1495
25.58 1397
25.6 1260
25.62 1220
25.64 1156
25.66 1164
25.68 1174
25.7 1150
25.72 1140
25.74 1094
25.76 1107
25.78 1122
25.8 1111
25.82 1058
25.84 1100
25.86 1097
25.88 1164
25.9 1097
25.92 1069
25.94 1063
25.96 1054
25.98 1036
26 1062
26.02 1089
26.04 1074
26.06 1070
26.08 1016
26.1 1025
26.12 1054
26.14 1032
26.16 1096
26.18 1005
26.2 1078
26.22 990
26.24 1000
26.26 1017
26.28 1016
26.3 1049
26.32 995
26.34 1044
26.36 1032
26.38 1056
26.4 1014
26.42 1039
26.44 1058
26.46 1094
26.48 1133
26.5 1251
26.52 1338
26.54 1364
26.56 1403
26.58 1397
26.6 1356
26.62 1314
26.64 1220
26.66 1160
26.68 1104
26.7 1041
26.72 1047
26.74 1001
26.76 991
26.78 1038
26.8 976
26.82 1008
26.84 1010
26.86 948
26.88 959
26.9 958
26.92 1021
26.94 1020
26.96 930
26.98 984
27 995
27.02 990
27.04 1016
27.06 962
27.08 985
27.1 928
27.12 969
27.14 986
27.16 1010
27.18 1018
27.2 1022
27.22 942
27.24 955
27.26 946
27.28 1046
27.3 1148
27.32 1120
27.34 1244
27.36 1323
27.38 1397
27.4 1385
27.42 1486
27.44 1284
27.46 1135
27.48 1153
27.5 1121
27.52 1030
27.54 909
27.56 977
27.58 950
27.6 917
27.62 949
27.64 894
27.66 920
27.68 909
27.7 903
27.72 882
27.74 886
27.76 900
27.78 872
27.8 914
27.82 878
27.84 855
27.86 914
27.88 941
27.9 893
27.92 882
27.94 888
27.96 887
27.98 952
28 902
28.02 886
28.04 898
28.06 868
28.08 931
28.1 919
28.12 953
28.14 933
28.16 979
28.18 1050
28.2 997
28.22 1019
28.24 1009
28.26 946
28.28 942
28.3 888
28.32 885
28.34 859
28.36 859
28.38 843
28.4 818
28.42 835
28.44 809
28.46 817
28.48 835
28.5 909
28.52 870
28.54 831
28.56 842
28.58 878
28.6 846
28.62 937
28.64 871
28.66 921
28.68 932
28.7 896
28.72 1018
28.74 992
28.76 1113
28.78 1149
28.8 1204
28.82 1301
28.84 1167
28.86 1084
28.88 1057
28.9 1022
28.92 1107
28.94 1027
28.96 1124
28.98 1191
29 1198
29.02 1210
29.04 1013
29.06 1024
29.08 922
29.1 949
29.12 849
29.14 864
29.16 841
29.18 801
29.2 818
29.22 788
29.24 753
29.26 794
29.28 752
29.3 799
29.32 788
29.34 787
29.36 800
29.38 790
29.4 809
29.42 796
29.44 803
29.46 815
29.48 769
29.5 753
29.52 745
29.54 832
29.56 789
29.58 741
29.6 735
29.62 813
29.64 828
29.66 762
29.68 792
29.7 758
29.72 815
29.74 758
29.76 775
29.78 814
29.8 750
29.82 777
29.84 754
29.86 770
29.88 815
29.9 781
29.92 776
29.94 780
29.96 789
29.98 731
30 807