File: xrd-UiO-67/pxrddata/4-32.ASC
3 2365
3.02 2200
3.04 1987
3.06 1907
3.08 1786
3.1 1688
3.12 1662
3.14 1587
3.16 1610
3.18 1567
3.2 1570
3.22 1555
3.24 1547
3.26 1507
3.28 1474
3.3 1491
3.32 1436
3.34 1468
3.36 1424
3.38 1410
3.4 1455
3.42 1413
3.44 1502
3.46 1610
3.48 1517
3.5 1574
3.52 1442
3.54 1445
3.56 1410
3.58 1359
3.6 1368
3.62 1346
3.64 1317
3.66 1331
3.68 1349
3.7 1219
3.72 1200
3.74 1238
3.76 1236
3.78 1174
3.8 1123
3.82 1174
3.84 1106
3.86 1189
3.88 1079
3.9 1125
3.92 1039
3.94 1092
3.96 1104
3.98 1073
4 1036
4.02 1039
4.04 1059
4.06 1059
4.08 1073
4.1 1044
4.12 1021
4.14 1053
4.16 1024
4.18 989
4.2 1042
4.22 1015
4.24 1003
4.26 990
4.28 934
4.3 976
4.32 957
4.34 954
4.36 876
4.38 903
4.4 902
4.42 989
4.44 953
4.46 963
4.48 937
4.5 954
4.52 920
4.54 926
4.56 950
4.58 951
4.6 950
4.62 967
4.64 938
4.66 921
4.68 966
4.7 925
4.72 945
4.74 965
4.76 954
4.78 958
4.8 915
4.82 921
4.84 996
4.86 925
4.88 942
4.9 1010
4.92 940
4.94 1011
4.96 994
4.98 1012
5 1012
5.02 1082
5.04 1041
5.06 1087
5.08 1066
5.1 1128
5.12 1111
5.14 1170
5.16 1162
5.18 1184
5.2 1239
5.22 1267
5.24 1303
5.26 1300
5.28 1310
5.3 1472
5.32 1491
5.34 1525
5.36 1621
5.38 1684
5.4 1836
5.42 1849
5.44 1934
5.46 1863
5.48 1928
5.5 2013
5.52 1985
5.54 2198
5.56 2241
5.58 2450
5.6 2576
5.62 2728
5.64 2958
5.66 3186
5.68 3413
5.7 3954
5.72 4728
5.74 5828
5.76 6196
5.78 5009
5.8 3348
5.82 2160
5.84 1607
5.86 1386
5.88 1313
5.9 1264
5.92 1183
5.94 1135
5.96 1111
5.98 1105
6 1070
6.02 1001
6.04 1048
6.06 1059
6.08 1041
6.1 1030
6.12 1018
6.14 1027
6.16 1043
6.18 1073
6.2 1015
6.22 1021
6.24 1057
6.26 1100
6.28 1181
6.3 1157
6.32 1182
6.34 1233
6.36 1223
6.38 1176
6.4 1377
6.42 1409
6.44 1391
6.46 1576
6.48 1623
6.5 1702
6.52 1716
6.54 1890
6.56 2030
6.58 2305
6.6 2645
6.62 3173
6.64 3254
6.66 2846
6.68 1982
6.7 1468
6.72 1191
6.74 1061
6.76 1103
6.78 1058
6.8 1019
6.82 1043
6.84 1051
6.86 1092
6.88 1088
6.9 1086
6.92 1127
6.94 1111
6.96 1055
6.98 1089
7 1181
7.02 1085
7.04 1102
7.06 1116
7.08 1157
7.1 1111
7.12 1088
7.14 1123
7.16 1143
7.18 1199
7.2 1217
7.22 1245
7.24 1272
7.26 1299
7.28 1260
7.3 1370
7.32 1404
7.34 1467
7.36 1514
7.38 1525
7.4 1637
7.42 1488
7.44 1364
7.46 1222
7.48 1183
7.5 1047
7.52 1025
7.54 990
7.56 982
7.58 882
7.6 914
7.62 893
7.64 917
7.66 907
7.68 900
7.7 875
7.72 880
7.74 913
7.76 876
7.78 878
7.8 864
7.82 872
7.84 865
7.86 818
7.88 850
7.9 827
7.92 861
7.94 866
7.96 894
7.98 892
8 848
8.02 883
8.04 910
8.06 856
8.08 842
8.1 841
8.12 871
8.14 792
8.16 803
8.18 882
8.2 878
8.22 857
8.24 888
8.26 898
8.28 846
8.3 872
8.32 886
8.34 871
8.36 913
8.38 869
8.4 858
8.42 934
8.44 882
8.46 915
8.48 902
8.5 894
8.52 921
8.54 933
8.56 940
8.58 928
8.6 901
8.62 890
8.64 900
8.66 854
8.68 834
8.7 842
8.72 831
8.74 840
8.76 831
8.78 893
8.8 811
8.82 852
8.84 908
8.86 829
8.88 842
8.9 914
8.92 943
8.94 897
8.96 923
8.98 953
9 1007
9.02 954
9.04 953
9.06 1027
9.08 1051
9.1 1036
9.12 1161
9.14 1162
9.16 1180
9.18 1207
9.2 1286
9.22 1360
9.24 1479
9.26 1522
9.28 1628
9.3 1896
9.32 2077
9.34 2435
9.36 2731
9.38 2585
9.4 1944
9.42 1341
9.44 1027
9.46 968
9.48 927
9.5 919
9.52 919
9.54 909
9.56 934
9.58 909
9.6 856
9.62 865
9.64 858
9.66 872
9.68 903
9.7 876
9.72 872
9.74 872
9.76 906
9.78 843
9.8 863
9.82 849
9.84 913
9.86 883
9.88 864
9.9 888
9.92 931
9.94 866
9.96 857
9.98 889
10 895
10.02 920
10.04 852
10.06 855
10.08 838
10.1 903
10.12 836
10.14 879
10.16 894
10.18 943
10.2 881
10.22 905
10.24 919
10.26 955
10.28 886
10.3 864
10.32 864
10.34 891
10.36 838
10.38 871
10.4 894
10.42 909
10.44 919
10.46 915
10.48 975
10.5 893
10.52 902
10.54 945
10.56 909
10.58 941
10.6 923
10.62 937
10.64 995
10.66 985
10.68 1071
10.7 1067
10.72 1077
10.74 1048
10.76 1142
10.78 1145
10.8 1258
10.82 1253
10.84 1287
10.86 1392
10.88 1388
10.9 1558
10.92 1699
10.94 2009
10.96 2329
10.98 2303
11 2117
11.02 1761
11.04 1310
11.06 1143
11.08 1046
11.1 994
11.12 1001
11.14 924
11.16 1011
11.18 931
11.2 1011
11.22 1001
11.24 984
11.26 1008
11.28 1040
11.3 1057
11.32 1105
11.34 1080
11.36 1099
11.38 1143
11.4 1268
11.42 1367
11.44 1506
11.46 1582
11.48 1559
11.5 1398
11.52 1150
11.54 1084
11.56 1035
11.58 959
11.6 960
11.62 918
11.64 974
11.66 974
11.68 918
11.7 974
11.72 960
11.74 947
11.76 975
11.78 972
11.8 979
11.82 991
11.84 946
11.86 993
11.88 958
11.9 1024
11.92 993
11.94 935
11.96 993
11.98 1000
12 1009
12.02 1087
12.04 1000
12.06 1060
12.08 1031
12.1 1004
12.12 1020
12.14 1001
12.16 950
12.18 986
12.2 971
12.22 985
12.24 997
12.26 912
12.28 956
12.3 941
12.32 999
12.34 970
12.36 978
12.38 939
12.4 953
12.42 911
12.44 925
12.46 943
12.48 999
12.5 974
12.52 948
12.54 946
12.56 964
12.58 1010
12.6 1022
12.62 973
12.64 1006
12.66 946
12.68 1000
12.7 940
12.72 1003
12.74 990
12.76 983
12.78 986
12.8 1015
12.82 992
12.84 985
12.86 953
12.88 949
12.9 1004
12.92 1041
12.94 1017
12.96 1021
12.98 1016
13 1048
13.02 1061
13.04 1031
13.06 1035
13.08 1031
13.1 1026
13.12 1074
13.14 1029
13.16 1114
13.18 1165
13.2 1168
13.22 1182
13.24 1215
13.26 1216
13.28 1155
13.3 1083
13.32 1051
13.34 1075
13.36 1002
13.38 1028
13.4 1034
13.42 1027
13.44 1027
13.46 1004
13.48 1083
13.5 1054
13.52 1027
13.54 1108
13.56 985
13.58 1052
13.6 1036
13.62 1061
13.64 1053
13.66 1067
13.68 1022
13.7 1097
13.72 1106
13.74 1056
13.76 1034
13.78 1122
13.8 1121
13.82 1003
13.84 1075
13.86 1111
13.88 1080
13.9 1135
13.92 1108
13.94 1093
13.96 1169
13.98 1169
14 1085
14.02 1116
14.04 1160
14.06 1133
14.08 1109
14.1 1187
14.12 1133
14.14 1102
14.16 1169
14.18 1160
14.2 1158
14.22 1161
14.24 1090
14.26 1137
14.28 1164
14.3 1142
14.32 1180
14.34 1269
14.36 1261
14.38 1266
14.4 1319
14.42 1315
14.44 1287
14.46 1274
14.48 1201
14.5 1221
14.52 1161
14.54 1117
14.56 1169
14.58 1155
14.6 1209
14.62 1146
14.64 1144
14.66 1234
14.68 1200
14.7 1165
14.72 1217
14.74 1202
14.76 1177
14.78 1216
14.8 1192
14.82 1286
14.84 1241
14.86 1178
14.88 1248
14.9 1195
14.92 1234
14.94 1218
14.96 1300
14.98 1237
15 1219
15.02 1181
15.04 1191
15.06 1259
15.08 1232
15.1 1256
15.12 1236
15.14 1254
15.16 1216
15.18 1204
15.2 1276
15.22 1272
15.24 1256
15.26 1219
15.28 1261
15.3 1266
15.32 1377
15.34 1227
15.36 1322
15.38 1280
15.4 1303
15.42 1326
15.44 1152
15.46 1329
15.48 1248
15.5 1295
15.52 1319
15.54 1314
15.56 1287
15.58 1225
15.6 1333
15.62 1319
15.64 1334
15.66 1299
15.68 1293
15.7 1312
15.72 1344
15.74 1352
15.76 1394
15.78 1360
15.8 1353
15.82 1300
15.84 1320
15.86 1351
15.88 1314
15.9 1357
15.92 1365
15.94 1434
15.96 1384
15.98 1448
16 1398
16.02 1389
16.04 1407
16.06 1348
16.08 1371
16.1 1376
16.12 1400
16.14 1440
16.16 1376
16.18 1373
16.2 1445
16.22 1462
16.24 1432
16.26 1487
16.28 1422
16.3 1369
16.32 1437
16.34 1423
16.36 1455
16.38 1416
16.4 1430
16.42 1452
16.44 1494
16.46 1439
16.48 1441
16.5 1386
16.52 1494
16.54 1484
16.56 1500
16.58 1438
16.6 1507
16.62 1532
16.64 1514
16.66 1434
16.68 1529
16.7 1532
16.72 1536
16.74 1564
16.76 1499
16.78 1516
16.8 1565
16.82 1587
16.84 1535
16.86 1500
16.88 1563
16.9 1603
16.92 1545
16.94 1578
16.96 1622
16.98 1545
17 1634
17.02 1560
17.04 1606
17.06 1615
17.08 1671
17.1 1665
17.12 1666
17.14 1715
17.16 1767
17.18 1797
17.2 1740
17.22 1835
17.24 1731
17.26 1728
17.28 1722
17.3 1768
17.32 1685
17.34 1625
17.36 1646
17.38 1676
17.4 1691
17.42 1662
17.44 1681
17.46 1642
17.48 1683
17.5 1674
17.52 1630
17.54 1665
17.56 1721
17.58 1756
17.6 1769
17.62 1692
17.64 1674
17.66 1714
17.68 1751
17.7 1786
17.72 1711
17.74 1730
17.76 1787
17.78 1762
17.8 1675
17.82 1857
17.84 1793
17.86 1811
17.88 1768
17.9 1831
17.92 1873
17.94 1816
17.96 1804
17.98 1881
18 1866
18.02 1855
18.04 1836
18.06 1831
18.08 1815
18.1 1794
18.12 1900
18.14 1829
18.16 1899
18.18 1889
18.2 1831
18.22 1836
18.24 1841
18.26 1868
18.28 1934
18.3 1774
18.32 1955
18.34 1829
18.36 2016
18.38 1984
18.4 1835
18.42 1888
18.44 1918
18.46 1901
18.48 1913
18.5 1927
18.52 2006
18.54 2031
18.56 1954
18.58 2014
18.6 1989
18.62 1969
18.64 1998
18.66 1992
18.68 1971
18.7 2002
18.72 2066
18.74 2013
18.76 2034
18.78 2038
18.8 2038
18.82 2038
18.84 1974
18.86 2079
18.88 2080
18.9 2057
18.92 2020
18.94 2095
18.96 2009
18.98 2052
19 2048
19.02 2118
19.04 2038
19.06 2081
19.08 2108
19.1 2103
19.12 2064
19.14 2115
19.16 2054
19.18 2003
19.2 2081
19.22 2110
19.24 2117
19.26 2167
19.28 2166
19.3 2115
19.32 2105
19.34 2163
19.36 2270
19.38 2137
19.4 2238
19.42 2232
19.44 2195
19.46 2156
19.48 2200
19.5 2293
19.52 2296
19.54 2364
19.56 2522
19.58 2493
19.6 2615
19.62 2510
19.64 2405
19.66 2402
19.68 2337
19.7 2217
19.72 2298
19.74 2229
19.76 2251
19.78 2305
19.8 2338
19.82 2466
19.84 2657
19.86 2701
19.88 2791
19.9 2790
19.92 2601
19.94 2552
19.96 2321
19.98 2269
20 2217
20.02 2167
20.04 2212
20.06 2164
20.08 2244
20.1 2161
20.12 2245
20.14 2152
20.16 2211
20.18 2194
20.2 2178
20.22 2221
20.24 2176
20.26 2175
20.28 2193
20.3 2195
20.32 2233
20.34 2205
20.36 2250
20.38 2121
20.4 2148
20.42 2161
20.44 2150
20.46 2314
20.48 2274
20.5 2205
20.52 2186
20.54 2258
20.56 2213
20.58 2169
20.6 2256
20.62 2210
20.64 2276
20.66 2198
20.68 2222
20.7 2179
20.72 2266
20.74 2227
20.76 2247
20.78 2203
20.8 2257
20.82 2240
20.84 2301
20.86 2261
20.88 2238
20.9 2253
20.92 2204
20.94 2212
20.96 2303
20.98 2277
21 2244
21.02 2262
21.04 2269
21.06 2242
21.08 2223
21.1 2231
21.12 2320
21.14 2232
21.16 2243
21.18 2220
21.2 2151
21.22 2225
21.24 2350
21.26 2182
21.28 2214
21.3 2199
21.32 2142
21.34 2209
21.36 2253
21.38 2246
21.4 2218
21.42 2258
21.44 2195
21.46 2225
21.48 2294
21.5 2200
21.52 2165
21.54 2282
21.56 2270
21.58 2216
21.6 2202
21.62 2247
21.64 2277
21.66 2287
21.68 2289
21.7 2328
21.72 2353
21.74 2355
21.76 2435
21.78 2398
21.8 2382
21.82 2217
21.84 2240
21.86 2181
21.88 2241
21.9 2183
21.92 2211
21.94 2153
21.96 2277
21.98 2101
22 2175
22.02 2208
22.04 2194
22.06 2135
22.08 2220
22.1 2208
22.12 2163
22.14 2197
22.16 2219
22.18 2145
22.2 2223
22.22 2111
22.24 2248
22.26 2200
22.28 2160
22.3 2218
22.32 2174
22.34 2206
22.36 2175
22.38 2212
22.4 2240
22.42 2207
22.44 2131
22.46 2232
22.48 2129
22.5 2080
22.52 2076
22.54 2060
22.56 2187
22.58 2086
22.6 2095
22.62 2172
22.64 2172
22.66 2064
22.68 2092
22.7 2173
22.72 2130
22.74 2040
22.76 2045
22.78 2156
22.8 2119
22.82 2125
22.84 2132
22.86 2027
22.88 2177
22.9 2031
22.92 2082
22.94 2136
22.96 2139
22.98 2184
23 2198
23.02 2069
23.04 2193
23.06 2128
23.08 2115
23.1 2104
23.12 2116
23.14 2066
23.16 2097
23.18 1985
23.2 2006
23.22 2011
23.24 2041
23.26 2056
23.28 2050
23.3 1966
23.32 2077
23.34 2014
23.36 1984
23.38 2031
23.4 2020
23.42 1988
23.44 2007
23.46 2023
23.48 2025
23.5 2099
23.52 2067
23.54 2122
23.56 2132
23.58 2123
23.6 2163
23.62 2177
23.64 2210
23.66 2289
23.68 2354
23.7 2537
23.72 2414
23.74 2184
23.76 2094
23.78 2169
23.8 2039
23.82 2067
23.84 1971
23.86 2021
23.88 2004
23.9 2128
23.92 2028
23.94 2041
23.96 1984
23.98 2007
24 1979
24.02 1893
24.04 1950
24.06 1932
24.08 1948
24.1 1916
24.12 1917
24.14 1913
24.16 1909
24.18 1933
24.2 1944
24.22 1937
24.24 1883
24.26 1937
24.28 1832
24.3 1945
24.32 1882
24.34 1872
24.36 1902
24.38 1822
24.4 1892
24.42 1852
24.44 1896
24.46 1828
24.48 1907
24.5 1889
24.52 1871
24.54 1903
24.56 1901
24.58 1866
24.6 1906
24.62 1910
24.64 1867
24.66 1891
24.68 1824
24.7 1867
24.72 1874
24.74 1932
24.76 2007
24.78 2026
24.8 2023
24.82 2061
24.84 2102
24.86 2159
24.88 2065
24.9 1925
24.92 1929
24.94 1915
24.96 1860
24.98 1834
25 1814
25.02 1825
25.04 1851
25.06 1778
25.08 1873
25.1 1890
25.12 1853
25.14 1772
25.16 1824
25.18 1885
25.2 1765
25.22 1809
25.24 1818
25.26 1776
25.28 1856
25.3 1841
25.32 1852
25.34 1801
25.36 1842
25.38 1823
25.4 1838
25.42 1939
25.44 1850
25.46 1923
25.48 2107
25.5 2161
25.52 2197
25.54 2130
25.56 2070
25.58 1975
25.6 1895
25.62 1911
25.64 1765
25.66 1815
25.68 1857
25.7 1791
25.72 1773
25.74 1723
25.76 1676
25.78 1713
25.8 1772
25.82 1751
25.84 1750
25.86 1727
25.88 1699
25.9 1762
25.92 1698
25.94 1711
25.96 1644
25.98 1687
26 1739
26.02 1710
26.04 1653
26.06 1736
26.08 1631
26.1 1710
26.12 1727
26.14 1675
26.16 1634
26.18 1660
26.2 1691
26.22 1683
26.24 1703
26.26 1748
26.28 1624
26.3 1654
26.32 1703
26.34 1597
26.36 1650
26.38 1612
26.4 1691
26.42 1584
26.44 1670
26.46 1615
26.48 1700
26.5 1656
26.52 1735
26.54 1744
26.56 1897
26.58 1806
26.6 1837
26.62 1911
26.64 1797
26.66 1699
26.68 1689
26.7 1642
26.72 1660
26.74 1648
26.76 1632
26.78 1587
26.8 1638
26.82 1612
26.84 1646
26.86 1629
26.88 1672
26.9 1549
26.92 1644
26.94 1661
26.96 1559
26.98 1701
27 1673
27.02 1562
27.04 1569
27.06 1605
27.08 1676
27.1 1655
27.12 1579
27.14 1612
27.16 1598
27.18 1642
27.2 1633
27.22 1528
27.24 1622
27.26 1662
27.28 1604
27.3 1629
27.32 1634
27.34 1680
27.36 1721
27.38 1741
27.4 1832
27.42 1850
27.44 1851
27.46 1760
27.48 1713
27.5 1650
27.52 1631
27.54 1537
27.56 1550
27.58 1525
27.6 1544
27.62 1503
27.64 1482
27.66 1419
27.68 1523
27.7 1484
27.72 1486
27.74 1559
27.76 1530
27.78 1508
27.8 1507
27.82 1520
27.84 1475
27.86 1516
27.88 1537
27.9 1498
27.92 1483
27.94 1417
27.96 1498
27.98 1471
28 1526
28.02 1547
28.04 1541
28.06 1488
28.08 1453
28.1 1478
28.12 1557
28.14 1569
28.16 1526
28.18 1548
28.2 1490
28.22 1580
28.24 1601
28.26 1568
28.28 1504
28.3 1417
28.32 1464
28.34 1473
28.36 1470
28.38 1502
28.4 1513
28.42 1485
28.44 1463
28.46 1444
28.48 1490
28.5 1468
28.52 1429
28.54 1460
28.56 1472
28.58 1461
28.6 1405
28.62 1432
28.64 1400
28.66 1404
28.68 1411
28.7 1402
28.72 1489
28.74 1507
28.76 1528
28.78 1544
28.8 1567
28.82 1650
28.84 1636
28.86 1622
28.88 1530
28.9 1457
28.92 1521
28.94 1473
28.96 1434
28.98 1539
29 1610
29.02 1627
29.04 1558
29.06 1530
29.08 1551
29.1 1444
29.12 1470
29.14 1345
29.16 1426
29.18 1363
29.2 1398
29.22 1361
29.24 1274
29.26 1361
29.28 1348
29.3 1388
29.32 1367
29.34 1407
29.36 1287
29.38 1290
29.4 1407
29.42 1424
29.44 1401
29.46 1328
29.48 1300
29.5 1292
29.52 1297
29.54 1361
29.56 1327
29.58 1411
29.6 1353
29.62 1362
29.64 1360
29.66 1389
29.68 1377
29.7 1309
29.72 1276
29.74 1338
29.76 1355
29.78 1337
29.8 1245
29.82 1329
29.84 1326
29.86 1309
29.88 1311
29.9 1287
29.92 1290
29.94 1359
29.96 1360
29.98 1284
30 1230