File: xrd-UiO-67/pxrddata/4-33.ASC
3 2171
3.02 1972
3.04 1825
3.06 1723
3.08 1664
3.1 1565
3.12 1521
3.14 1446
3.16 1482
3.18 1479
3.2 1406
3.22 1445
3.24 1425
3.26 1408
3.28 1340
3.3 1342
3.32 1360
3.34 1292
3.36 1351
3.38 1193
3.4 1282
3.42 1292
3.44 1265
3.46 1245
3.48 1272
3.5 1258
3.52 1242
3.54 1200
3.56 1217
3.58 1182
3.6 1166
3.62 1167
3.64 1184
3.66 1181
3.68 1198
3.7 1231
3.72 1166
3.74 1147
3.76 1137
3.78 1164
3.8 1119
3.82 1119
3.84 1121
3.86 1086
3.88 1102
3.9 1093
3.92 1122
3.94 1077
3.96 1113
3.98 1090
4 1048
4.02 1109
4.04 1077
4.06 1066
4.08 1090
4.1 1033
4.12 973
4.14 1060
4.16 1057
4.18 1011
4.2 1032
4.22 1078
4.24 1014
4.26 1042
4.28 999
4.3 951
4.32 1015
4.34 1010
4.36 1001
4.38 1019
4.4 1003
4.42 961
4.44 959
4.46 954
4.48 993
4.5 994
4.52 980
4.54 954
4.56 933
4.58 956
4.6 1003
4.62 967
4.64 932
4.66 967
4.68 933
4.7 923
4.72 961
4.74 983
4.76 958
4.78 977
4.8 943
4.82 929
4.84 928
4.86 925
4.88 950
4.9 937
4.92 947
4.94 932
4.96 996
4.98 928
5 931
5.02 961
5.04 909
5.06 995
5.08 1029
5.1 1007
5.12 962
5.14 972
5.16 975
5.18 904
5.2 983
5.22 989
5.24 978
5.26 1000
5.28 999
5.3 970
5.32 1002
5.34 1004
5.36 962
5.38 1054
5.4 1050
5.42 986
5.44 980
5.46 1112
5.48 1017
5.5 1001
5.52 1051
5.54 1083
5.56 1099
5.58 1044
5.6 1097
5.62 1056
5.64 1150
5.66 1106
5.68 1204
5.7 1215
5.72 1197
5.74 1434
5.76 1573
5.78 1563
5.8 1477
5.82 1242
5.84 1100
5.86 981
5.88 1020
5.9 1058
5.92 1009
5.94 1011
5.96 1003
5.98 1063
6 1115
6.02 1039
6.04 1001
6.06 1034
6.08 976
6.1 961
6.12 1022
6.14 986
6.16 978
6.18 1014
6.2 991
6.22 965
6.24 973
6.26 1021
6.28 1064
6.3 1014
6.32 1067
6.34 1028
6.36 1045
6.38 1034
6.4 1107
6.42 1070
6.44 1153
6.46 1149
6.48 1119
6.5 1100
6.52 1102
6.54 1095
6.56 1180
6.58 1179
6.6 1242
6.62 1296
6.64 1366
6.66 1345
6.68 1309
6.7 1232
6.72 1173
6.74 1048
6.76 1093
6.78 1043
6.8 1070
6.82 968
6.84 1001
6.86 1023
6.88 1051
6.9 1023
6.92 1110
6.94 1023
6.96 1052
6.98 1087
7 1049
7.02 1161
7.04 1040
7.06 1029
7.08 1041
7.1 1056
7.12 1069
7.14 1088
7.16 1012
7.18 1004
7.2 1060
7.22 1079
7.24 1088
7.26 1066
7.28 1026
7.3 1037
7.32 1072
7.34 1032
7.36 1037
7.38 1016
7.4 1107
7.42 1041
7.44 1080
7.46 1105
7.48 1108
7.5 1109
7.52 1066
7.54 1045
7.56 1020
7.58 1064
7.6 1081
7.62 1091
7.64 1126
7.66 1082
7.68 1044
7.7 1065
7.72 1060
7.74 1071
7.76 1028
7.78 1029
7.8 1054
7.82 1058
7.84 1129
7.86 1063
7.88 1032
7.9 1084
7.92 1095
7.94 1057
7.96 1067
7.98 1084
8 1076
8.02 1110
8.04 1071
8.06 1146
8.08 1071
8.1 1060
8.12 1129
8.14 1123
8.16 1022
8.18 1074
8.2 1073
8.22 1127
8.24 1130
8.26 1056
8.28 1130
8.3 1060
8.32 1143
8.34 1095
8.36 1129
8.38 1111
8.4 1097
8.42 1079
8.44 1070
8.46 1074
8.48 1125
8.5 1146
8.52 1105
8.54 1131
8.56 1125
8.58 1104
8.6 1088
8.62 1080
8.64 1073
8.66 1154
8.68 1114
8.7 1165
8.72 1071
8.74 1110
8.76 1145
8.78 1129
8.8 1165
8.82 1139
8.84 1124
8.86 1135
8.88 1166
8.9 1140
8.92 1119
8.94 1129
8.96 1168
8.98 1161
9 1114
9.02 1167
9.04 1127
9.06 1162
9.08 1185
9.1 1178
9.12 1224
9.14 1194
9.16 1220
9.18 1172
9.2 1202
9.22 1226
9.24 1297
9.26 1269
9.28 1296
9.3 1286
9.32 1345
9.34 1414
9.36 1608
9.38 1595
9.4 1574
9.42 1381
9.44 1280
9.46 1208
9.48 1213
9.5 1133
9.52 1129
9.54 1138
9.56 1170
9.58 1119
9.6 1151
9.62 1199
9.64 1166
9.66 1152
9.68 1211
9.7 1133
9.72 1196
9.74 1172
9.76 1167
9.78 1181
9.8 1138
9.82 1217
9.84 1230
9.86 1232
9.88 1177
9.9 1153
9.92 1218
9.94 1180
9.96 1132
9.98 1154
10 1174
10.02 1192
10.04 1137
10.06 1201
10.08 1144
10.1 1114
10.12 1145
10.14 1197
10.16 1132
10.18 1142
10.2 1269
10.22 1198
10.24 1137
10.26 1244
10.28 1187
10.3 1195
10.32 1193
10.34 1226
10.36 1240
10.38 1233
10.4 1203
10.42 1222
10.44 1205
10.46 1222
10.48 1200
10.5 1227
10.52 1159
10.54 1244
10.56 1251
10.58 1225
10.6 1205
10.62 1224
10.64 1190
10.66 1190
10.68 1224
10.7 1315
10.72 1202
10.74 1264
10.76 1305
10.78 1232
10.8 1295
10.82 1333
10.84 1384
10.86 1395
10.88 1345
10.9 1430
10.92 1502
10.94 1545
10.96 1675
10.98 1785
11 1716
11.02 1648
11.04 1431
11.06 1303
11.08 1308
11.1 1235
11.12 1203
11.14 1252
11.16 1282
11.18 1248
11.2 1301
11.22 1252
11.24 1257
11.26 1298
11.28 1262
11.3 1272
11.32 1341
11.34 1344
11.36 1315
11.38 1409
11.4 1376
11.42 1462
11.44 1533
11.46 1649
11.48 1672
11.5 1572
11.52 1485
11.54 1345
11.56 1282
11.58 1366
11.6 1185
11.62 1246
11.64 1290
11.66 1224
11.68 1236
11.7 1333
11.72 1352
11.74 1231
11.76 1280
11.78 1330
11.8 1250
11.82 1233
11.84 1262
11.86 1382
11.88 1247
11.9 1296
11.92 1327
11.94 1270
11.96 1243
11.98 1350
12 1344
12.02 1297
12.04 1353
12.06 1346
12.08 1333
12.1 1368
12.12 1358
12.14 1342
12.16 1300
12.18 1306
12.2 1324
12.22 1350
12.24 1325
12.26 1339
12.28 1377
12.3 1306
12.32 1277
12.34 1337
12.36 1302
12.38 1332
12.4 1369
12.42 1324
12.44 1296
12.46 1351
12.48 1385
12.5 1391
12.52 1423
12.54 1360
12.56 1415
12.58 1430
12.6 1322
12.62 1311
12.64 1409
12.66 1445
12.68 1435
12.7 1385
12.72 1433
12.74 1408
12.76 1355
12.78 1380
12.8 1406
12.82 1370
12.84 1447
12.86 1379
12.88 1349
12.9 1429
12.92 1471
12.94 1404
12.96 1421
12.98 1417
13 1449
13.02 1432
13.04 1399
13.06 1541
13.08 1450
13.1 1443
13.12 1481
13.14 1459
13.16 1517
13.18 1495
13.2 1576
13.22 1591
13.24 1572
13.26 1627
13.28 1562
13.3 1578
13.32 1440
13.34 1396
13.36 1515
13.38 1492
13.4 1529
13.42 1506
13.44 1517
13.46 1570
13.48 1554
13.5 1447
13.52 1512
13.54 1539
13.56 1547
13.58 1511
13.6 1548
13.62 1533
13.64 1544
13.66 1532
13.68 1527
13.7 1584
13.72 1562
13.74 1527
13.76 1533
13.78 1483
13.8 1524
13.82 1576
13.84 1562
13.86 1575
13.88 1528
13.9 1546
13.92 1593
13.94 1592
13.96 1550
13.98 1557
14 1571
14.02 1531
14.04 1612
14.06 1636
14.08 1624
14.1 1615
14.12 1686
14.14 1586
14.16 1654
14.18 1684
14.2 1677
14.22 1677
14.24 1684
14.26 1649
14.28 1728
14.3 1727
14.32 1712
14.34 1689
14.36 1718
14.38 1739
14.4 1749
14.42 1777
14.44 1832
14.46 1799
14.48 1837
14.5 1708
14.52 1660
14.54 1729
14.56 1714
14.58 1661
14.6 1768
14.62 1689
14.64 1705
14.66 1672
14.68 1733
14.7 1669
14.72 1699
14.74 1714
14.76 1735
14.78 1771
14.8 1761
14.82 1777
14.84 1780
14.86 1796
14.88 1794
14.9 1810
14.92 1776
14.94 1816
14.96 1819
14.98 1805
15 1798
15.02 1892
15.04 1845
15.06 1870
15.08 1839
15.1 1845
15.12 1832
15.14 1812
15.16 1875
15.18 1854
15.2 1864
15.22 1837
15.24 1834
15.26 1882
15.28 1854
15.3 1854
15.32 1916
15.34 1920
15.36 1876
15.38 1936
15.4 1945
15.42 1960
15.44 1908
15.46 1899
15.48 1926
15.5 1966
15.52 1928
15.54 1965
15.56 1955
15.58 1962
15.6 2027
15.62 1994
15.64 1915
15.66 1905
15.68 2025
15.7 2028
15.72 2024
15.74 2027
15.76 1918
15.78 1947
15.8 1923
15.82 2021
15.84 2076
15.86 2016
15.88 1945
15.9 2063
15.92 2105
15.94 2089
15.96 2117
15.98 2118
16 2122
16.02 2112
16.04 2151
16.06 2047
16.08 2062
16.1 2110
16.12 2079
16.14 2174
16.16 2127
16.18 2096
16.2 2099
16.22 2219
16.24 2200
16.26 2166
16.28 2222
16.3 2132
16.32 2128
16.34 2221
16.36 2250
16.38 2273
16.4 2235
16.42 2296
16.44 2198
16.46 2211
16.48 2240
16.5 2219
16.52 2222
16.54 2249
16.56 2245
16.58 2342
16.6 2250
16.62 2368
16.64 2230
16.66 2361
16.68 2342
16.7 2377
16.72 2369
16.74 2326
16.76 2376
16.78 2347
16.8 2305
16.82 2366
16.84 2315
16.86 2368
16.88 2365
16.9 2383
16.92 2406
16.94 2402
16.96 2401
16.98 2549
17 2401
17.02 2400
17.04 2447
17.06 2429
17.08 2485
17.1 2391
17.12 2515
17.14 2446
17.16 2564
17.18 2543
17.2 2628
17.22 2594
17.24 2662
17.26 2674
17.28 2598
17.3 2631
17.32 2528
17.34 2484
17.36 2525
17.38 2664
17.4 2580
17.42 2640
17.44 2509
17.46 2588
17.48 2659
17.5 2650
17.52 2583
17.54 2550
17.56 2630
17.58 2627
17.6 2675
17.62 2669
17.64 2670
17.66 2617
17.68 2690
17.7 2629
17.72 2700
17.74 2601
17.76 2662
17.78 2728
17.8 2760
17.82 2756
17.84 2811
17.86 2747
17.88 2742
17.9 2719
17.92 2642
17.94 2772
17.96 2853
17.98 2859
18 2819
18.02 2840
18.04 2815
18.06 2955
18.08 2914
18.1 2927
18.12 2943
18.14 2838
18.16 2921
18.18 2899
18.2 2829
18.22 2857
18.24 2976
18.26 3052
18.28 2933
18.3 2972
18.32 2927
18.34 2929
18.36 2988
18.38 3043
18.4 3041
18.42 2981
18.44 3064
18.46 2990
18.48 3040
18.5 2985
18.52 2965
18.54 3040
18.56 2929
18.58 3036
18.6 3077
18.62 3021
18.64 3041
18.66 3067
18.68 3066
18.7 3194
18.72 3204
18.74 3155
18.76 3127
18.78 3004
18.8 3066
18.82 3168
18.84 3079
18.86 3145
18.88 3111
18.9 3229
18.92 3209
18.94 3218
18.96 3215
18.98 3289
19 3105
19.02 3150
19.04 3189
19.06 3225
19.08 3311
19.1 3274
19.12 3227
19.14 3184
19.16 3308
19.18 3335
19.2 3308
19.22 3283
19.24 3313
19.26 3353
19.28 3298
19.3 3258
19.32 3393
19.34 3328
19.36 3333
19.38 3365
19.4 3323
19.42 3392
19.44 3375
19.46 3370
19.48 3476
19.5 3465
19.52 3461
19.54 3410
19.56 3512
19.58 3609
19.6 3660
19.62 3875
19.64 3710
19.66 3661
19.68 3517
19.7 3574
19.72 3522
19.74 3481
19.76 3503
19.78 3475
19.8 3569
19.82 3805
19.84 3733
19.86 3807
19.88 3924
19.9 4040
19.92 3923
19.94 3852
19.96 3669
19.98 3537
20 3489
20.02 3471
20.04 3478
20.06 3353
20.08 3492
20.1 3511
20.12 3490
20.14 3550
20.16 3498
20.18 3548
20.2 3406
20.22 3585
20.24 3466
20.26 3548
20.28 3437
20.3 3457
20.32 3583
20.34 3552
20.36 3385
20.38 3571
20.4 3523
20.42 3556
20.44 3501
20.46 3573
20.48 3463
20.5 3578
20.52 3499
20.54 3487
20.56 3564
20.58 3606
20.6 3523
20.62 3449
20.64 3514
20.66 3525
20.68 3596
20.7 3552
20.72 3503
20.74 3491
20.76 3480
20.78 3569
20.8 3609
20.82 3559
20.84 3552
20.86 3644
20.88 3653
20.9 3522
20.92 3566
20.94 3497
20.96 3642
20.98 3495
21 3464
21.02 3522
21.04 3500
21.06 3612
21.08 3463
21.1 3521
21.12 3508
21.14 3533
21.16 3573
21.18 3459
21.2 3483
21.22 3461
21.24 3575
21.26 3481
21.28 3559
21.3 3507
21.32 3454
21.34 3446
21.36 3561
21.38 3472
21.4 3387
21.42 3450
21.44 3375
21.46 3481
21.48 3485
21.5 3403
21.52 3404
21.54 3546
21.56 3480
21.58 3434
21.6 3489
21.62 3460
21.64 3516
21.66 3535
21.68 3466
21.7 3568
21.72 3565
21.74 3819
21.76 3605
21.78 3676
21.8 3525
21.82 3552
21.84 3468
21.86 3424
21.88 3376
21.9 3375
21.92 3431
21.94 3432
21.96 3467
21.98 3376
22 3423
22.02 3357
22.04 3432
22.06 3286
22.08 3401
22.1 3330
22.12 3294
22.14 3294
22.16 3324
22.18 3373
22.2 3300
22.22 3263
22.24 3319
22.26 3304
22.28 3211
22.3 3243
22.32 3216
22.34 3266
22.36 3282
22.38 3257
22.4 3316
22.42 3341
22.44 3204
22.46 3387
22.48 3299
22.5 3251
22.52 3319
22.54 3212
22.56 3308
22.58 3212
22.6 3273
22.62 3242
22.64 3250
22.66 3251
22.68 3298
22.7 3135
22.72 3089
22.74 3164
22.76 3192
22.78 3152
22.8 3210
22.82 3230
22.84 3186
22.86 3132
22.88 3204
22.9 3162
22.92 3268
22.94 3224
22.96 3282
22.98 3300
23 3214
23.02 3333
23.04 3227
23.06 3223
23.08 3206
23.1 3078
23.12 3128
23.14 3161
23.16 3185
23.18 3143
23.2 3203
23.22 3120
23.24 3014
23.26 3140
23.28 3109
23.3 2997
23.32 2994
23.34 3043
23.36 3052
23.38 3004
23.4 3074
23.42 3040
23.44 3080
23.46 3066
23.48 2978
23.5 3090
23.52 3014
23.54 3022
23.56 3101
23.58 2920
23.6 2940
23.62 3060
23.64 3117
23.66 3125
23.68 3258
23.7 3387
23.72 3504
23.74 3378
23.76 3197
23.78 3066
23.8 3050
23.82 2969
23.84 2982
23.86 2871
23.88 2940
23.9 2895
23.92 3046
23.94 3001
23.96 2905
23.98 2948
24 2940
24.02 2898
24.04 2860
24.06 2850
24.08 2869
24.1 2842
24.12 2781
24.14 2828
24.16 2805
24.18 2868
24.2 2653
24.22 2879
24.24 2788
24.26 2721
24.28 2805
24.3 2761
24.32 2725
24.34 2723
24.36 2818
24.38 2810
24.4 2812
24.42 2750
24.44 2741
24.46 2771
24.48 2726
24.5 2808
24.52 2732
24.54 2786
24.56 2683
24.58 2606
24.6 2691
24.62 2652
24.64 2694
24.66 2717
24.68 2665
24.7 2680
24.72 2690
24.74 2661
24.76 2677
24.78 2805
24.8 2723
24.82 2805
24.84 2930
24.86 3035
24.88 2880
24.9 2810
24.92 2867
24.94 2782
24.96 2639
24.98 2478
25 2608
25.02 2639
25.04 2580
25.06 2653
25.08 2602
25.1 2574
25.12 2480
25.14 2603
25.16 2538
25.18 2630
25.2 2468
25.22 2688
25.24 2548
25.26 2581
25.28 2496
25.3 2497
25.32 2565
25.34 2570
25.36 2566
25.38 2527
25.4 2541
25.42 2608
25.44 2612
25.46 2680
25.48 2676
25.5 2847
25.52 3143
25.54 3050
25.56 2879
25.58 2809
25.6 2736
25.62 2599
25.64 2421
25.66 2471
25.68 2399
25.7 2421
25.72 2455
25.74 2369
25.76 2347
25.78 2436
25.8 2373
25.82 2303
25.84 2330
25.86 2335
25.88 2360
25.9 2364
25.92 2301
25.94 2250
25.96 2252
25.98 2279
26 2299
26.02 2352
26.04 2241
26.06 2313
26.08 2331
26.1 2259
26.12 2274
26.14 2208
26.16 2242
26.18 2343
26.2 2280
26.22 2322
26.24 2300
26.26 2216
26.28 2260
26.3 2317
26.32 2296
26.34 2189
26.36 2259
26.38 2305
26.4 2250
26.42 2246
26.44 2304
26.46 2205
26.48 2224
26.5 2306
26.52 2289
26.54 2326
26.56 2372
26.58 2413
26.6 2541
26.62 2526
26.64 2294
26.66 2382
26.68 2333
26.7 2235
26.72 2224
26.74 2276
26.76 2077
26.78 2181
26.8 2249
26.82 2240
26.84 2219
26.86 2221
26.88 2175
26.9 2103
26.92 2137
26.94 2174
26.96 2126
26.98 2168
27 2109
27.02 2142
27.04 2105
27.06 2071
27.08 2109
27.1 2126
27.12 2061
27.14 2022
27.16 2098
27.18 2129
27.2 2080
27.22 2104
27.24 2049
27.26 2020
27.28 2107
27.3 2156
27.32 2070
27.34 2071
27.36 2235
27.38 2242
27.4 2271
27.42 2404
27.44 2374
27.46 2363
27.48 2306
27.5 2196
27.52 2171
27.54 2087
27.56 2065
27.58 1945
27.6 1986
27.62 2006
27.64 2024
27.66 1945
27.68 1992
27.7 1956
27.72 1902
27.74 1971
27.76 2001
27.78 1930
27.8 1958
27.82 1952
27.84 2007
27.86 1923
27.88 1949
27.9 1912
27.92 1964
27.94 1928
27.96 1898
27.98 1967
28 1884
28.02 1943
28.04 1940
28.06 2037
28.08 1900
28.1 1841
28.12 1977
28.14 1950
28.16 1908
28.18 1949
28.2 2007
28.22 1919
28.24 2038
28.26 1978
28.28 2023
28.3 2045
28.32 2032
28.34 1863
28.36 1883
28.38 1882
28.4 1842
28.42 1829
28.44 1859
28.46 1811
28.48 1866
28.5 1863
28.52 1820
28.54 1878
28.56 1834
28.58 1884
28.6 1785
28.62 1804
28.64 1824
28.66 1797
28.68 1818
28.7 1853
28.72 1933
28.74 1884
28.76 1875
28.78 1981
28.8 2047
28.82 2252
28.84 2219
28.86 2195
28.88 2073
28.9 2010
28.92 2056
28.94 1967
28.96 1802
28.98 1879
29 2024
29.02 2143
29.04 2077
29.06 2014
29.08 1975
29.1 1922
29.12 1868
29.14 1875
29.16 1724
29.18 1808
29.2 1795
29.22 1717
29.24 1743
29.26 1752
29.28 1707
29.3 1721
29.32 1799
29.34 1772
29.36 1772
29.38 1724
29.4 1665
29.42 1752
29.44 1714
29.46 1662
29.48 1643
29.5 1715
29.52 1746
29.54 1665
29.56 1691
29.58 1762
29.6 1660
29.62 1720
29.64 1763
29.66 1702
29.68 1703
29.7 1714
29.72 1679
29.74 1724
29.76 1627
29.78 1660
29.8 1648
29.82 1639
29.84 1700
29.86 1662
29.88 1644
29.9 1676
29.92 1660
29.94 1690
29.96 1641
29.98 1663
30 1587