File: xrd-UiO-67/pxrddata/4-34.ASC
3 1923
3.02 1767
3.04 1626
3.06 1552
3.08 1518
3.1 1400
3.12 1395
3.14 1351
3.16 1353
3.18 1351
3.2 1372
3.22 1345
3.24 1344
3.26 1319
3.28 1306
3.3 1369
3.32 1327
3.34 1293
3.36 1271
3.38 1271
3.4 1194
3.42 1237
3.44 1239
3.46 1202
3.48 1299
3.5 1230
3.52 1206
3.54 1224
3.56 1234
3.58 1210
3.6 1187
3.62 1202
3.64 1186
3.66 1217
3.68 1187
3.7 1175
3.72 1153
3.74 1144
3.76 1168
3.78 1057
3.8 1104
3.82 1213
3.84 1121
3.86 1120
3.88 1099
3.9 1086
3.92 1110
3.94 1125
3.96 1078
3.98 1045
4 1149
4.02 1106
4.04 1099
4.06 1025
4.08 1042
4.1 1045
4.12 1041
4.14 1043
4.16 1029
4.18 1007
4.2 1015
4.22 1090
4.24 1047
4.26 1037
4.28 1016
4.3 1014
4.32 1025
4.34 1057
4.36 1026
4.38 951
4.4 1001
4.42 1002
4.44 1010
4.46 1025
4.48 954
4.5 998
4.52 986
4.54 988
4.56 944
4.58 1005
4.6 994
4.62 999
4.64 960
4.66 921
4.68 965
4.7 957
4.72 966
4.74 980
4.76 962
4.78 963
4.8 995
4.82 944
4.84 972
4.86 992
4.88 974
4.9 933
4.92 945
4.94 1004
4.96 938
4.98 916
5 948
5.02 933
5.04 979
5.06 925
5.08 948
5.1 922
5.12 1001
5.14 938
5.16 953
5.18 905
5.2 922
5.22 981
5.24 953
5.26 976
5.28 980
5.3 935
5.32 983
5.34 990
5.36 932
5.38 951
5.4 980
5.42 975
5.44 928
5.46 966
5.48 963
5.5 957
5.52 989
5.54 1028
5.56 965
5.58 979
5.6 1041
5.62 1012
5.64 992
5.66 979
5.68 1040
5.7 1079
5.72 1013
5.74 988
5.76 1120
5.78 1100
5.8 1030
5.82 1040
5.84 1114
5.86 1198
5.88 1344
5.9 1696
5.92 1843
5.94 1226
5.96 986
5.98 1107
6 1048
6.02 1064
6.04 1086
6.06 1032
6.08 1056
6.1 1085
6.12 976
6.14 985
6.16 1082
6.18 1045
6.2 1041
6.22 1041
6.24 1053
6.26 1006
6.28 1013
6.3 1032
6.32 968
6.34 1068
6.36 1071
6.38 998
6.4 1054
6.42 1101
6.44 989
6.46 1047
6.48 1093
6.5 1048
6.52 1048
6.54 1083
6.56 1088
6.58 1025
6.6 1055
6.62 1093
6.64 1067
6.66 1046
6.68 1029
6.7 1065
6.72 1111
6.74 1083
6.76 1084
6.78 1043
6.8 1053
6.82 1093
6.84 1074
6.86 1035
6.88 1073
6.9 1083
6.92 1074
6.94 1001
6.96 1092
6.98 1069
7 1041
7.02 1121
7.04 1020
7.06 1047
7.08 1040
7.1 1105
7.12 1033
7.14 1087
7.16 1111
7.18 1117
7.2 1053
7.22 1068
7.24 1033
7.26 1069
7.28 1065
7.3 1049
7.32 1041
7.34 1128
7.36 1077
7.38 1055
7.4 1088
7.42 1105
7.44 1074
7.46 1136
7.48 1061
7.5 1140
7.52 1084
7.54 1015
7.56 1046
7.58 1087
7.6 1115
7.62 1113
7.64 1052
7.66 1083
7.68 1011
7.7 1125
7.72 1133
7.74 1066
7.76 1105
7.78 1117
7.8 1145
7.82 1125
7.84 1031
7.86 1040
7.88 1093
7.9 1059
7.92 1075
7.94 1079
7.96 1126
7.98 1079
8 1099
8.02 1109
8.04 1068
8.06 1095
8.08 1088
8.1 1106
8.12 1088
8.14 1113
8.16 1098
8.18 1083
8.2 1064
8.22 1110
8.24 1061
8.26 1083
8.28 1027
8.3 1147
8.32 1075
8.34 1080
8.36 1112
8.38 1123
8.4 1064
8.42 1104
8.44 1107
8.46 1093
8.48 1127
8.5 1085
8.52 1103
8.54 1090
8.56 1097
8.58 1129
8.6 1069
8.62 1120
8.64 1105
8.66 1140
8.68 1137
8.7 1095
8.72 1078
8.74 1101
8.76 1125
8.78 1103
8.8 1106
8.82 1130
8.84 1067
8.86 1050
8.88 1148
8.9 1114
8.92 1091
8.94 1110
8.96 1107
8.98 1109
9 1076
9.02 1128
9.04 1124
9.06 1100
9.08 1119
9.1 1142
9.12 1096
9.14 1119
9.16 1104
9.18 1127
9.2 1132
9.22 1097
9.24 1138
9.26 1151
9.28 1203
9.3 1124
9.32 1097
9.34 1140
9.36 1122
9.38 1147
9.4 1103
9.42 1118
9.44 1112
9.46 1125
9.48 1135
9.5 1148
9.52 1086
9.54 1082
9.56 1113
9.58 1120
9.6 1092
9.62 1099
9.64 1138
9.66 1134
9.68 1122
9.7 1167
9.72 1140
9.74 1091
9.76 1080
9.78 1135
9.8 1076
9.82 1124
9.84 1119
9.86 1127
9.88 1067
9.9 1135
9.92 1124
9.94 1109
9.96 1113
9.98 1135
10 1101
10.02 1118
10.04 1154
10.06 1079
10.08 1117
10.1 1156
10.12 1132
10.14 1096
10.16 1133
10.18 1149
10.2 1156
10.22 1119
10.24 1141
10.26 1091
10.28 1141
10.3 1126
10.32 1141
10.34 1124
10.36 1119
10.38 1158
10.4 1134
10.42 1143
10.44 1106
10.46 1115
10.48 1131
10.5 1100
10.52 1136
10.54 1138
10.56 1218
10.58 1174
10.6 1102
10.62 1189
10.64 1148
10.66 1141
10.68 1212
10.7 1121
10.72 1114
10.74 1146
10.76 1207
10.78 1174
10.8 1152
10.82 1183
10.84 1155
10.86 1164
10.88 1163
10.9 1172
10.92 1208
10.94 1231
10.96 1249
10.98 1215
11 1176
11.02 1143
11.04 1189
11.06 1187
11.08 1188
11.1 1144
11.12 1202
11.14 1194
11.16 1209
11.18 1152
11.2 1174
11.22 1171
11.24 1181
11.26 1162
11.28 1199
11.3 1183
11.32 1218
11.34 1199
11.36 1125
11.38 1227
11.4 1186
11.42 1128
11.44 1228
11.46 1272
11.48 1335
11.5 1284
11.52 1258
11.54 1212
11.56 1211
11.58 1221
11.6 1211
11.62 1215
11.64 1308
11.66 1275
11.68 1170
11.7 1204
11.72 1219
11.74 1165
11.76 1205
11.78 1280
11.8 1242
11.82 1161
11.84 1226
11.86 1224
11.88 1230
11.9 1215
11.92 1217
11.94 1252
11.96 1239
11.98 1205
12 1219
12.02 1205
12.04 1260
12.06 1200
12.08 1255
12.1 1279
12.12 1232
12.14 1262
12.16 1202
12.18 1208
12.2 1272
12.22 1242
12.24 1203
12.26 1218
12.28 1311
12.3 1199
12.32 1251
12.34 1208
12.36 1316
12.38 1176
12.4 1239
12.42 1251
12.44 1220
12.46 1224
12.48 1281
12.5 1271
12.52 1292
12.54 1287
12.56 1228
12.58 1297
12.6 1287
12.62 1227
12.64 1232
12.66 1315
12.68 1310
12.7 1353
12.72 1235
12.74 1321
12.76 1234
12.78 1265
12.8 1301
12.82 1294
12.84 1329
12.86 1305
12.88 1285
12.9 1256
12.92 1320
12.94 1291
12.96 1309
12.98 1221
13 1333
13.02 1291
13.04 1257
13.06 1321
13.08 1296
13.1 1301
13.12 1314
13.14 1271
13.16 1338
13.18 1354
13.2 1344
13.22 1375
13.24 1291
13.26 1329
13.28 1418
13.3 1388
13.32 1339
13.34 1293
13.36 1394
13.38 1329
13.4 1404
13.42 1373
13.44 1388
13.46 1357
13.48 1349
13.5 1312
13.52 1338
13.54 1394
13.56 1372
13.58 1393
13.6 1409
13.62 1419
13.64 1403
13.66 1416
13.68 1427
13.7 1410
13.72 1345
13.74 1427
13.76 1390
13.78 1457
13.8 1425
13.82 1460
13.84 1383
13.86 1400
13.88 1437
13.9 1455
13.92 1437
13.94 1401
13.96 1426
13.98 1397
14 1488
14.02 1439
14.04 1442
14.06 1475
14.08 1493
14.1 1501
14.12 1504
14.14 1497
14.16 1472
14.18 1417
14.2 1461
14.22 1472
14.24 1502
14.26 1520
14.28 1486
14.3 1553
14.32 1574
14.34 1467
14.36 1532
14.38 1499
14.4 1507
14.42 1524
14.44 1586
14.46 1550
14.48 1491
14.5 1632
14.52 1586
14.54 1609
14.56 1518
14.58 1542
14.6 1574
14.62 1481
14.64 1629
14.66 1592
14.68 1535
14.7 1605
14.72 1548
14.74 1560
14.76 1532
14.78 1576
14.8 1625
14.82 1651
14.84 1669
14.86 1628
14.88 1623
14.9 1581
14.92 1690
14.94 1630
14.96 1698
14.98 1674
15 1621
15.02 1629
15.04 1677
15.06 1725
15.08 1705
15.1 1636
15.12 1675
15.14 1624
15.16 1661
15.18 1660
15.2 1701
15.22 1622
15.24 1746
15.26 1666
15.28 1772
15.3 1684
15.32 1657
15.34 1640
15.36 1734
15.38 1649
15.4 1716
15.42 1709
15.44 1686
15.46 1743
15.48 1757
15.5 1765
15.52 1712
15.54 1774
15.56 1674
15.58 1748
15.6 1803
15.62 1806
15.64 1741
15.66 1854
15.68 1809
15.7 1834
15.72 1799
15.74 1790
15.76 1719
15.78 1803
15.8 1863
15.82 1829
15.84 1736
15.86 1855
15.88 1838
15.9 1829
15.92 1833
15.94 1800
15.96 1904
15.98 1933
16 1782
16.02 1883
16.04 1984
16.06 1922
16.08 1937
16.1 1921
16.12 1935
16.14 1962
16.16 1927
16.18 1908
16.2 1893
16.22 1913
16.24 1916
16.26 1881
16.28 2005
16.3 1901
16.32 2011
16.34 1932
16.36 1967
16.38 1939
16.4 1977
16.42 1969
16.44 1977
16.46 2039
16.48 2017
16.5 1942
16.52 2022
16.54 1954
16.56 2034
16.58 1983
16.6 2003
16.62 2046
16.64 2164
16.66 2052
16.68 2088
16.7 2038
16.72 2031
16.74 2178
16.76 2162
16.78 2106
16.8 2103
16.82 2085
16.84 2127
16.86 2158
16.88 2151
16.9 2195
16.92 2256
16.94 2254
16.96 2251
16.98 2332
17 2288
17.02 2296
17.04 2201
17.06 2259
17.08 2185
17.1 2225
17.12 2277
17.14 2252
17.16 2214
17.18 2251
17.2 2267
17.22 2227
17.24 2196
17.26 2298
17.28 2281
17.3 2300
17.32 2341
17.34 2304
17.36 2269
17.38 2211
17.4 2247
17.42 2347
17.44 2288
17.46 2339
17.48 2243
17.5 2363
17.52 2289
17.54 2244
17.56 2325
17.58 2329
17.6 2420
17.62 2301
17.64 2392
17.66 2457
17.68 2437
17.7 2357
17.72 2427
17.74 2315
17.76 2391
17.78 2379
17.8 2483
17.82 2460
17.84 2478
17.86 2440
17.88 2411
17.9 2455
17.92 2466
17.94 2519
17.96 2518
17.98 2521
18 2503
18.02 2521
18.04 2425
18.06 2652
18.08 2576
18.1 2599
18.12 2504
18.14 2517
18.16 2603
18.18 2591
18.2 2532
18.22 2546
18.24 2497
18.26 2529
18.28 2614
18.3 2647
18.32 2579
18.34 2672
18.36 2610
18.38 2626
18.4 2596
18.42 2687
18.44 2598
18.46 2744
18.48 2739
18.5 2709
18.52 2748
18.54 2831
18.56 2701
18.58 2598
18.6 2665
18.62 2639
18.64 2657
18.66 2820
18.68 2718
18.7 2704
18.72 2826
18.74 2734
18.76 2747
18.78 2767
18.8 2712
18.82 2708
18.84 2872
18.86 2896
18.88 2824
18.9 2866
18.92 2770
18.94 2823
18.96 2863
18.98 2887
19 2850
19.02 2850
19.04 2818
19.06 2859
19.08 2901
19.1 2932
19.12 2940
19.14 2860
19.16 2956
19.18 2933
19.2 2845
19.22 2964
19.24 2883
19.26 2900
19.28 2855
19.3 2933
19.32 2921
19.34 2882
19.36 3023
19.38 2880
19.4 3021
19.42 2916
19.44 2929
19.46 2991
19.48 2990
19.5 3075
19.52 2954
19.54 2995
19.56 3139
19.58 3143
19.6 3245
19.62 3060
19.64 2991
19.66 2984
19.68 3045
19.7 3071
19.72 2999
19.74 2957
19.76 3095
19.78 3072
19.8 3047
19.82 3030
19.84 3078
19.86 3113
19.88 3226
19.9 3050
19.92 3135
19.94 3115
19.96 3123
19.98 3094
20 3111
20.02 3045
20.04 3084
20.06 3166
20.08 3071
20.1 3114
20.12 3118
20.14 3176
20.16 3143
20.18 3279
20.2 3174
20.22 3080
20.24 3103
20.26 3173
20.28 3115
20.3 3185
20.32 3025
20.34 3233
20.36 3276
20.38 3108
20.4 3065
20.42 3187
20.44 3221
20.46 3120
20.48 3084
20.5 3294
20.52 3272
20.54 3162
20.56 3133
20.58 3197
20.6 3194
20.62 3190
20.64 3111
20.66 3218
20.68 3130
20.7 3167
20.72 3296
20.74 3253
20.76 3158
20.78 3167
20.8 3210
20.82 3140
20.84 3237
20.86 3084
20.88 3207
20.9 3190
20.92 3196
20.94 3170
20.96 3238
20.98 3260
21 3186
21.02 3195
21.04 3102
21.06 3241
21.08 3218
21.1 3130
21.12 3217
21.14 3124
21.16 3165
21.18 3041
21.2 3324
21.22 3147
21.24 3189
21.26 3233
21.28 3044
21.3 3129
21.32 3197
21.34 3212
21.36 3116
21.38 3116
21.4 3091
21.42 3070
21.44 3156
21.46 3199
21.48 3068
21.5 3089
21.52 3219
21.54 3054
21.56 3140
21.58 3039
21.6 3133
21.62 3226
21.64 3194
21.66 3094
21.68 3116
21.7 3186
21.72 3085
21.74 3110
21.76 3159
21.78 3088
21.8 3079
21.82 3104
21.84 3144
21.86 3028
21.88 3070
21.9 3097
21.92 3076
21.94 3066
21.96 3067
21.98 3006
22 3102
22.02 3100
22.04 3020
22.06 3005
22.08 3065
22.1 3038
22.12 2974
22.14 3059
22.16 3098
22.18 2939
22.2 2907
22.22 3020
22.24 3008
22.26 2988
22.28 3057
22.3 3048
22.32 3087
22.34 3000
22.36 3026
22.38 3011
22.4 3035
22.42 3011
22.44 2958
22.46 2910
22.48 2921
22.5 2968
22.52 2955
22.54 2886
22.56 2942
22.58 3073
22.6 2902
22.62 2959
22.64 3104
22.66 2849
22.68 2897
22.7 2981
22.72 2898
22.74 2914
22.76 2924
22.78 2890
22.8 2969
22.82 2912
22.84 2911
22.86 2835
22.88 2781
22.9 2788
22.92 2878
22.94 2813
22.96 2856
22.98 2872
23 2958
23.02 2924
23.04 2875
23.06 2822
23.08 2809
23.1 2810
23.12 2926
23.14 2821
23.16 2786
23.18 2752
23.2 2815
23.22 2685
23.24 2807
23.26 2793
23.28 2791
23.3 2752
23.32 2664
23.34 2767
23.36 2809
23.38 2723
23.4 2753
23.42 2745
23.44 2605
23.46 2791
23.48 2709
23.5 2785
23.52 2740
23.54 2740
23.56 2686
23.58 2716
23.6 2777
23.62 2711
23.64 2780
23.66 2732
23.68 2666
23.7 2824
23.72 2735
23.74 2782
23.76 2768
23.78 2668
23.8 2689
23.82 2696
23.84 2663
23.86 2577
23.88 2611
23.9 2659
23.92 2590
23.94 2630
23.96 2542
23.98 2646
24 2649
24.02 2522
24.04 2622
24.06 2546
24.08 2623
24.1 2572
24.12 2609
24.14 2534
24.16 2539
24.18 2626
24.2 2540
24.22 2556
24.24 2527
24.26 2496
24.28 2560
24.3 2492
24.32 2520
24.34 2585
24.36 2518
24.38 2511
24.4 2597
24.42 2594
24.44 2520
24.46 2521
24.48 2509
24.5 2429
24.52 2502
24.54 2449
24.56 2407
24.58 2508
24.6 2382
24.62 2445
24.64 2436
24.66 2450
24.68 2444
24.7 2436
24.72 2395
24.74 2323
24.76 2433
24.78 2436
24.8 2368
24.82 2485
24.84 2385
24.86 2446
24.88 2523
24.9 2381
24.92 2483
24.94 2417
24.96 2416
24.98 2364
25 2349
25.02 2394
25.04 2333
25.06 2238
25.08 2320
25.1 2337
25.12 2381
25.14 2454
25.16 2349
25.18 2402
25.2 2385
25.22 2404
25.24 2465
25.26 2470
25.28 2434
25.3 2382
25.32 2378
25.34 2305
25.36 2330
25.38 2206
25.4 2307
25.42 2345
25.44 2342
25.46 2282
25.48 2378
25.5 2323
25.52 2486
25.54 2435
25.56 2304
25.58 2306
25.6 2285
25.62 2238
25.64 2225
25.66 2270
25.68 2229
25.7 2194
25.72 2223
25.74 2122
25.76 2174
25.78 2126
25.8 2197
25.82 2210
25.84 2126
25.86 2121
25.88 2101
25.9 2201
25.92 2114
25.94 2133
25.96 2163
25.98 2128
26 2107
26.02 2166
26.04 2077
26.06 2107
26.08 2136
26.1 2041
26.12 2038
26.14 2099
26.16 2229
26.18 2104
26.2 1944
26.22 2093
26.24 2075
26.26 1991
26.28 2094
26.3 2101
26.32 2067
26.34 2055
26.36 2049
26.38 2029
26.4 2053
26.42 2031
26.44 2010
26.46 2067
26.48 2018
26.5 2092
26.52 2019
26.54 2005
26.56 2085
26.58 2009
26.6 2127
26.62 2119
26.64 2103
26.66 2084
26.68 2099
26.7 2039
26.72 2020
26.74 1929
26.76 2019
26.78 2118
26.8 2024
26.82 2058
26.84 1971
26.86 2051
26.88 2006
26.9 2067
26.92 2092
26.94 2000
26.96 2029
26.98 1979
27 2051
27.02 2001
27.04 2026
27.06 1982
27.08 1950
27.1 2035
27.12 2018
27.14 2015
27.16 2017
27.18 1909
27.2 1950
27.22 2007
27.24 1907
27.26 1939
27.28 1993
27.3 1920
27.32 1965
27.34 1892
27.36 1972
27.38 1915
27.4 1916
27.42 1943
27.44 2075
27.46 1943
27.48 1886
27.5 1912
27.52 1909
27.54 1914
27.56 1928
27.58 1847
27.6 1860
27.62 1814
27.64 1820
27.66 1841
27.68 1926
27.7 1859
27.72 1863
27.74 1866
27.76 1817
27.78 1752
27.8 1788
27.82 1790
27.84 1773
27.86 1753
27.88 1814
27.9 1766
27.92 1847
27.94 1842
27.96 1788
27.98 1791
28 1814
28.02 1805
28.04 1768
28.06 1834
28.08 1817
28.1 1769
28.12 1758
28.14 1838
28.16 1871
28.18 1719
28.2 1822
28.22 1713
28.24 1793
28.26 1838
28.28 1813
28.3 1840
28.32 1731
28.34 1734
28.36 1659
28.38 1755
28.4 1700
28.42 1657
28.44 1768
28.46 1732
28.48 1703
28.5 1731
28.52 1669
28.54 1749
28.56 1722
28.58 1732
28.6 1735
28.62 1767
28.64 1720
28.66 1632
28.68 1730
28.7 1756
28.72 1749
28.74 1676
28.76 1773
28.78 1781
28.8 1815
28.82 1941
28.84 1941
28.86 1791
28.88 1795
28.9 1809
28.92 1804
28.94 1652
28.96 1745
28.98 1760
29 1741
29.02 1767
29.04 1789
29.06 1688
29.08 1712
29.1 1692
29.12 1683
29.14 1643
29.16 1684
29.18 1691
29.2 1645
29.22 1671
29.24 1693
29.26 1679
29.28 1649
29.3 1629
29.32 1560
29.34 1576
29.36 1589
29.38 1654
29.4 1620
29.42 1621
29.44 1614
29.46 1526
29.48 1525
29.5 1560
29.52 1563
29.54 1600
29.56 1573
29.58 1551
29.6 1556
29.62 1530
29.64 1579
29.66 1594
29.68 1539
29.7 1529
29.72 1537
29.74 1572
29.76 1514
29.78 1578
29.8 1588
29.82 1501
29.84 1585
29.86 1536
29.88 1602
29.9 1527
29.92 1496
29.94 1501
29.96 1507
29.98 1474
30 1504