File: xrd-UiO-67/pxrddata/4-35.ASC
3 2148
3.02 1994
3.04 1872
3.06 1720
3.08 1734
3.1 1681
3.12 1628
3.14 1641
3.16 1539
3.18 1581
3.2 1518
3.22 1550
3.24 1546
3.26 1544
3.28 1557
3.3 1557
3.32 1491
3.34 1471
3.36 1423
3.38 1412
3.4 1440
3.42 1447
3.44 1399
3.46 1393
3.48 1410
3.5 1370
3.52 1415
3.54 1407
3.56 1351
3.58 1307
3.6 1265
3.62 1326
3.64 1285
3.66 1386
3.68 1357
3.7 1285
3.72 1299
3.74 1321
3.76 1174
3.78 1289
3.8 1240
3.82 1272
3.84 1215
3.86 1214
3.88 1231
3.9 1251
3.92 1298
3.94 1215
3.96 1221
3.98 1171
4 1157
4.02 1122
4.04 1163
4.06 1148
4.08 1140
4.1 1149
4.12 1123
4.14 1147
4.16 1123
4.18 1183
4.2 1137
4.22 1121
4.24 1066
4.26 1132
4.28 1063
4.3 1079
4.32 1143
4.34 1051
4.36 1068
4.38 1089
4.4 1090
4.42 1029
4.44 1089
4.46 1098
4.48 1031
4.5 1028
4.52 998
4.54 1048
4.56 1035
4.58 1067
4.6 1073
4.62 990
4.64 1054
4.66 1010
4.68 1042
4.7 1039
4.72 1024
4.74 986
4.76 1026
4.78 1011
4.8 985
4.82 1042
4.84 1011
4.86 1031
4.88 990
4.9 1045
4.92 988
4.94 1005
4.96 978
4.98 971
5 996
5.02 986
5.04 990
5.06 1034
5.08 978
5.1 962
5.12 974
5.14 960
5.16 982
5.18 969
5.2 973
5.22 1013
5.24 978
5.26 947
5.28 1003
5.3 1017
5.32 978
5.34 1015
5.36 1026
5.38 1010
5.4 987
5.42 967
5.44 985
5.46 951
5.48 985
5.5 986
5.52 991
5.54 973
5.56 946
5.58 965
5.6 991
5.62 961
5.64 978
5.66 943
5.68 983
5.7 991
5.72 940
5.74 998
5.76 1039
5.78 978
5.8 994
5.82 987
5.84 997
5.86 952
5.88 983
5.9 1046
5.92 1056
5.94 1038
5.96 990
5.98 990
6 1016
6.02 968
6.04 1001
6.06 1020
6.08 981
6.1 949
6.12 1011
6.14 958
6.16 972
6.18 1011
6.2 1026
6.22 1051
6.24 998
6.26 1063
6.28 1006
6.3 1014
6.32 1029
6.34 999
6.36 1011
6.38 968
6.4 973
6.42 1032
6.44 1063
6.46 1040
6.48 1047
6.5 1013
6.52 1011
6.54 1024
6.56 1015
6.58 988
6.6 1018
6.62 1082
6.64 1063
6.66 1034
6.68 1000
6.7 1099
6.72 1034
6.74 1013
6.76 1057
6.78 1002
6.8 1050
6.82 1075
6.84 1048
6.86 1099
6.88 1057
6.9 1031
6.92 1035
6.94 1075
6.96 1004
6.98 1023
7 1009
7.02 1015
7.04 1050
7.06 1038
7.08 1083
7.1 1005
7.12 1051
7.14 995
7.16 1022
7.18 1050
7.2 1107
7.22 1035
7.24 1015
7.26 1049
7.28 1014
7.3 1047
7.32 1019
7.34 1031
7.36 1053
7.38 1037
7.4 1094
7.42 1041
7.44 1075
7.46 1041
7.48 1060
7.5 1090
7.52 1001
7.54 1052
7.56 1102
7.58 1046
7.6 1031
7.62 1077
7.64 1087
7.66 1041
7.68 1099
7.7 1086
7.72 1012
7.74 1042
7.76 1041
7.78 1023
7.8 1046
7.82 1038
7.84 1055
7.86 1062
7.88 1065
7.9 1023
7.92 1039
7.94 1066
7.96 1066
7.98 1021
8 1038
8.02 1043
8.04 1122
8.06 1078
8.08 1078
8.1 1027
8.12 1094
8.14 1073
8.16 1089
8.18 1151
8.2 1041
8.22 1052
8.24 1056
8.26 1072
8.28 1064
8.3 1071
8.32 1077
8.34 1081
8.36 1025
8.38 1035
8.4 1073
8.42 1111
8.44 1010
8.46 1088
8.48 1090
8.5 1082
8.52 1035
8.54 1122
8.56 1064
8.58 1058
8.6 1084
8.62 1070
8.64 1029
8.66 1095
8.68 1088
8.7 1061
8.72 1079
8.74 1059
8.76 1079
8.78 1144
8.8 1119
8.82 1089
8.84 1089
8.86 1101
8.88 1120
8.9 1073
8.92 1079
8.94 1080
8.96 1021
8.98 1088
9 1108
9.02 1135
9.04 1084
9.06 1076
9.08 1086
9.1 1118
9.12 1048
9.14 1102
9.16 1110
9.18 1091
9.2 1083
9.22 1078
9.24 1067
9.26 1090
9.28 1120
9.3 1098
9.32 1104
9.34 1155
9.36 1073
9.38 1038
9.4 1070
9.42 1047
9.44 1106
9.46 1137
9.48 1095
9.5 1126
9.52 1040
9.54 1068
9.56 1140
9.58 1087
9.6 1111
9.62 1132
9.64 1094
9.66 1057
9.68 1132
9.7 1037
9.72 1073
9.74 1067
9.76 1113
9.78 1107
9.8 1085
9.82 1100
9.84 1050
9.86 1113
9.88 1068
9.9 1105
9.92 1118
9.94 1081
9.96 1097
9.98 1105
10 1126
10.02 1100
10.04 1070
10.06 1107
10.08 1057
10.1 1054
10.12 1065
10.14 1134
10.16 1111
10.18 1047
10.2 1108
10.22 1082
10.24 1124
10.26 1167
10.28 1045
10.3 1097
10.32 1113
10.34 1097
10.36 1079
10.38 1092
10.4 1067
10.42 1048
10.44 1082
10.46 1155
10.48 1074
10.5 1083
10.52 1099
10.54 1130
10.56 1128
10.58 1142
10.6 1164
10.62 1134
10.64 1126
10.66 1102
10.68 1119
10.7 1154
10.72 1080
10.74 1164
10.76 1093
10.78 1197
10.8 1145
10.82 1170
10.84 1157
10.86 1086
10.88 1104
10.9 1099
10.92 1145
10.94 1099
10.96 1151
10.98 1094
11 1162
11.02 1166
11.04 1115
11.06 1089
11.08 1157
11.1 1149
11.12 1172
11.14 1161
11.16 1150
11.18 1088
11.2 1126
11.22 1090
11.24 1108
11.26 1141
11.28 1120
11.3 1143
11.32 1139
11.34 1130
11.36 1116
11.38 1119
11.4 1145
11.42 1163
11.44 1138
11.46 1104
11.48 1128
11.5 1252
11.52 1163
11.54 1189
11.56 1132
11.58 1141
11.6 1117
11.62 1207
11.64 1122
11.66 1159
11.68 1139
11.7 1127
11.72 1191
11.74 1169
11.76 1192
11.78 1119
11.8 1085
11.82 1127
11.84 1222
11.86 1162
11.88 1094
11.9 1202
11.92 1140
11.94 1234
11.96 1201
11.98 1179
12 1187
12.02 1167
12.04 1213
12.06 1266
12.08 1182
12.1 1234
12.12 1201
12.14 1182
12.16 1176
12.18 1217
12.2 1191
12.22 1285
12.24 1216
12.26 1182
12.28 1216
12.3 1210
12.32 1241
12.34 1241
12.36 1158
12.38 1250
12.4 1219
12.42 1179
12.44 1182
12.46 1228
12.48 1182
12.5 1219
12.52 1228
12.54 1191
12.56 1214
12.58 1234
12.6 1280
12.62 1192
12.64 1257
12.66 1233
12.68 1243
12.7 1215
12.72 1226
12.74 1242
12.76 1232
12.78 1234
12.8 1275
12.82 1232
12.84 1225
12.86 1253
12.88 1243
12.9 1267
12.92 1297
12.94 1261
12.96 1281
12.98 1269
13 1279
13.02 1295
13.04 1252
13.06 1309
13.08 1273
13.1 1324
13.12 1263
13.14 1322
13.16 1325
13.18 1334
13.2 1321
13.22 1352
13.24 1334
13.26 1336
13.28 1382
13.3 1356
13.32 1342
13.34 1341
13.36 1344
13.38 1265
13.4 1266
13.42 1269
13.44 1305
13.46 1339
13.48 1282
13.5 1335
13.52 1336
13.54 1320
13.56 1333
13.58 1335
13.6 1365
13.62 1310
13.64 1420
13.66 1369
13.68 1327
13.7 1260
13.72 1367
13.74 1380
13.76 1344
13.78 1296
13.8 1331
13.82 1383
13.84 1317
13.86 1380
13.88 1292
13.9 1348
13.92 1406
13.94 1394
13.96 1386
13.98 1339
14 1446
14.02 1459
14.04 1372
14.06 1470
14.08 1376
14.1 1387
14.12 1426
14.14 1383
14.16 1420
14.18 1493
14.2 1400
14.22 1368
14.24 1482
14.26 1405
14.28 1449
14.3 1487
14.32 1544
14.34 1374
14.36 1465
14.38 1424
14.4 1502
14.42 1500
14.44 1488
14.46 1486
14.48 1485
14.5 1461
14.52 1516
14.54 1407
14.56 1486
14.58 1488
14.6 1468
14.62 1495
14.64 1492
14.66 1530
14.68 1564
14.7 1510
14.72 1529
14.74 1485
14.76 1483
14.78 1562
14.8 1561
14.82 1464
14.84 1542
14.86 1520
14.88 1566
14.9 1499
14.92 1526
14.94 1573
14.96 1552
14.98 1573
15 1531
15.02 1598
15.04 1566
15.06 1645
15.08 1632
15.1 1624
15.12 1627
15.14 1580
15.16 1564
15.18 1596
15.2 1600
15.22 1571
15.24 1638
15.26 1581
15.28 1625
15.3 1651
15.32 1631
15.34 1652
15.36 1686
15.38 1740
15.4 1688
15.42 1702
15.44 1673
15.46 1669
15.48 1665
15.5 1676
15.52 1604
15.54 1719
15.56 1725
15.58 1671
15.6 1706
15.62 1680
15.64 1786
15.66 1675
15.68 1720
15.7 1767
15.72 1696
15.74 1752
15.76 1719
15.78 1773
15.8 1729
15.82 1680
15.84 1764
15.86 1776
15.88 1765
15.9 1816
15.92 1789
15.94 1866
15.96 1720
15.98 1764
16 1797
16.02 1808
16.04 1819
16.06 1877
16.08 1839
16.1 1862
16.12 1825
16.14 1794
16.16 1890
16.18 1872
16.2 1921
16.22 1918
16.24 1899
16.26 1854
16.28 1835
16.3 1917
16.32 1968
16.34 1940
16.36 1949
16.38 1968
16.4 1949
16.42 1958
16.44 2070
16.46 1993
16.48 2005
16.5 1981
16.52 1987
16.54 2003
16.56 2134
16.58 2031
16.6 2046
16.62 2081
16.64 2167
16.66 2146
16.68 2063
16.7 2189
16.72 2189
16.74 2318
16.76 2339
16.78 2394
16.8 2431
16.82 2573
16.84 2652
16.86 2865
16.88 3027
16.9 3236
16.92 3622
16.94 4040
16.96 4679
16.98 5500
17 6523
17.02 7855
17.04 9850
17.06 12444
17.08 12949
17.1 9640
17.12 7117
17.14 4576
17.16 3044
17.18 2587
17.2 2492
17.22 2438
17.24 2384
17.26 2366
17.28 2281
17.3 2344
17.32 2391
17.34 2269
17.36 2292
17.38 2222
17.4 2305
17.42 2288
17.44 2306
17.46 2351
17.48 2311
17.5 2255
17.52 2319
17.54 2353
17.56 2383
17.58 2331
17.6 2391
17.62 2270
17.64 2348
17.66 2366
17.68 2330
17.7 2386
17.72 2354
17.74 2384
17.76 2371
17.78 2355
17.8 2297
17.82 2473
17.84 2457
17.86 2438
17.88 2431
17.9 2392
17.92 2498
17.94 2483
17.96 2555
17.98 2439
18 2478
18.02 2482
18.04 2454
18.06 2497
18.08 2528
18.1 2447
18.12 2487
18.14 2590
18.16 2453
18.18 2525
18.2 2491
18.22 2517
18.24 2584
18.26 2602
18.28 2550
18.3 2573
18.32 2610
18.34 2588
18.36 2650
18.38 2555
18.4 2619
18.42 2632
18.44 2617
18.46 2595
18.48 2623
18.5 2660
18.52 2630
18.54 2755
18.56 2528
18.58 2730
18.6 2693
18.62 2593
18.64 2698
18.66 2705
18.68 2748
18.7 2743
18.72 2639
18.74 2703
18.76 2726
18.78 2788
18.8 2737
18.82 2750
18.84 2737
18.86 2789
18.88 2782
18.9 2848
18.92 2792
18.94 2860
18.96 2824
18.98 2829
19 2814
19.02 2808
19.04 2788
19.06 2817
19.08 2776
19.1 2846
19.12 2852
19.14 2784
19.16 2871
19.18 2908
19.2 2830
19.22 2925
19.24 2902
19.26 2881
19.28 2926
19.3 2907
19.32 2904
19.34 2977
19.36 2931
19.38 2937
19.4 2947
19.42 2960
19.44 2911
19.46 2887
19.48 2973
19.5 2927
19.52 2945
19.54 2928
19.56 2890
19.58 2962
19.6 3019
19.62 2974
19.64 2950
19.66 2984
19.68 3031
19.7 2920
19.72 3024
19.74 2980
19.76 3085
19.78 3075
19.8 3041
19.82 3065
19.84 3067
19.86 3023
19.88 3003
19.9 3066
19.92 3067
19.94 3023
19.96 3114
19.98 3091
20 3005
20.02 3032
20.04 3031
20.06 3068
20.08 3044
20.1 3032
20.12 3121
20.14 3058
20.16 3062
20.18 3071
20.2 3064
20.22 3097
20.24 3093
20.26 3047
20.28 3118
20.3 3130
20.32 3038
20.34 3145
20.36 3115
20.38 3065
20.4 3134
20.42 3128
20.44 3320
20.46 3156
20.48 3200
20.5 3097
20.52 3081
20.54 3098
20.56 3182
20.58 3157
20.6 3139
20.62 3089
20.64 3242
20.66 3182
20.68 3182
20.7 3212
20.72 3182
20.74 3142
20.76 3149
20.78 3158
20.8 3164
20.82 3236
20.84 3133
20.86 3223
20.88 3281
20.9 3224
20.92 3113
20.94 3257
20.96 3242
20.98 3142
21 3126
21.02 3196
21.04 3152
21.06 3146
21.08 3116
21.1 3213
21.12 3239
21.14 3198
21.16 3228
21.18 3192
21.2 3123
21.22 3191
21.24 3028
21.26 3217
21.28 3192
21.3 3226
21.32 3275
21.34 3106
21.36 3108
21.38 3188
21.4 3203
21.42 3103
21.44 3159
21.46 3117
21.48 3187
21.5 3141
21.52 3226
21.54 3109
21.56 3091
21.58 3144
21.6 3156
21.62 3181
21.64 3134
21.66 3213
21.68 3001
21.7 3052
21.72 3058
21.74 3105
21.76 3049
21.78 3119
21.8 3086
21.82 3095
21.84 3085
21.86 3059
21.88 3119
21.9 3130
21.92 3050
21.94 3022
21.96 3052
21.98 3089
22 3187
22.02 3086
22.04 3089
22.06 3140
22.08 3087
22.1 3026
22.12 3131
22.14 3071
22.16 3072
22.18 3099
22.2 3024
22.22 2935
22.24 3106
22.26 3009
22.28 3022
22.3 3091
22.32 2994
22.34 3054
22.36 3094
22.38 2974
22.4 3091
22.42 3055
22.44 3033
22.46 3060
22.48 3039
22.5 2918
22.52 2933
22.54 2989
22.56 3002
22.58 2928
22.6 2980
22.62 2930
22.64 2953
22.66 2858
22.68 2933
22.7 3046
22.72 3079
22.74 3023
22.76 2955
22.78 3010
22.8 2915
22.82 2922
22.84 2858
22.86 2872
22.88 2903
22.9 2883
22.92 2879
22.94 2945
22.96 2909
22.98 2915
23 2884
23.02 2876
23.04 2865
23.06 2907
23.08 3010
23.1 2870
23.12 2908
23.14 2804
23.16 2820
23.18 2791
23.2 2895
23.22 2919
23.24 2834
23.26 2831
23.28 2831
23.3 2854
23.32 2808
23.34 2778
23.36 2807
23.38 2776
23.4 2797
23.42 2726
23.44 2934
23.46 2789
23.48 2901
23.5 2818
23.52 2797
23.54 2748
23.56 2809
23.58 2833
23.6 2789
23.62 2754
23.64 2769
23.66 2695
23.68 2818
23.7 2760
23.72 2741
23.74 2806
23.76 2727
23.78 2777
23.8 2690
23.82 2794
23.84 2749
23.86 2670
23.88 2740
23.9 2694
23.92 2671
23.94 2655
23.96 2709
23.98 2711
24 2649
24.02 2666
24.04 2681
24.06 2702
24.08 2600
24.1 2646
24.12 2699
24.14 2704
24.16 2780
24.18 2741
24.2 2687
24.22 2674
24.24 2633
24.26 2769
24.28 2864
24.3 2728
24.32 2832
24.34 2776
24.36 2869
24.38 3030
24.4 2961
24.42 2829
24.44 3020
24.46 3027
24.48 3159
24.5 3140
24.52 3244
24.54 3232
24.56 3235
24.58 3230
24.6 3202
24.62 3237
24.64 3067
24.66 3078
24.68 2964
24.7 2854
24.72 2860
24.74 2716
24.76 2716
24.78 2626
24.8 2661
24.82 2687
24.84 2617
24.86 2661
24.88 2559
24.9 2550
24.92 2521
24.94 2655
24.96 2483
24.98 2631
25 2584
25.02 2664
25.04 2661
25.06 2698
25.08 2713
25.1 2726
25.12 2910
25.14 2906
25.16 3108
25.18 3271
25.2 3392
25.22 3698
25.24 3899
25.26 3945
25.28 4019
25.3 4205
25.32 4214
25.34 4160
25.36 4022
25.38 3878
25.4 3374
25.42 3169
25.44 2946
25.46 2819
25.48 2726
25.5 2688
25.52 2531
25.54 2536
25.56 2473
25.58 2399
25.6 2360
25.62 2347
25.64 2328
25.66 2374
25.68 2314
25.7 2302
25.72 2264
25.74 2275
25.76 2375
25.78 2324
25.8 2308
25.82 2298
25.84 2324
25.86 2256
25.88 2332
25.9 2293
25.92 2302
25.94 2298
25.96 2262
25.98 2187
26 2260
26.02 2262
26.04 2271
26.06 2245
26.08 2295
26.1 2265
26.12 2238
26.14 2234
26.16 2250
26.18 2291
26.2 2166
26.22 2240
26.24 2164
26.26 2206
26.28 2219
26.3 2090
26.32 2203
26.34 2220
26.36 2232
26.38 2120
26.4 2267
26.42 2211
26.44 2174
26.46 2226
26.48 2206
26.5 2316
26.52 2310
26.54 2261
26.56 2269
26.58 2320
26.6 2347
26.62 2552
26.64 2404
26.66 2568
26.68 2711
26.7 2753
26.72 2804
26.74 2858
26.76 3005
26.78 2973
26.8 2978
26.82 3166
26.84 3298
26.86 3431
26.88 3398
26.9 3503
26.92 3523
26.94 3483
26.96 3421
26.98 3268
27 3072
27.02 2907
27.04 2759
27.06 2574
27.08 2501
27.1 2407
27.12 2363
27.14 2247
27.16 2260
27.18 2204
27.2 2118
27.22 2102
27.24 2133
27.26 2079
27.28 2073
27.3 2079
27.32 2042
27.34 2079
27.36 2049
27.38 1953
27.4 2073
27.42 2092
27.44 2048
27.46 1997
27.48 1988
27.5 2036
27.52 2005
27.54 1974
27.56 1935
27.58 1979
27.6 1978
27.62 1957
27.64 1966
27.66 1861
27.68 1970
27.7 2014
27.72 1976
27.74 1950
27.76 1857
27.78 2000
27.8 1959
27.82 2003
27.84 1946
27.86 2010
27.88 1976
27.9 1888
27.92 1946
27.94 1888
27.96 1962
27.98 1899
28 1933
28.02 1882
28.04 1913
28.06 2007
28.08 1979
28.1 1961
28.12 2009
28.14 2048
28.16 1993
28.18 2048
28.2 2009
28.22 1938
28.24 1924
28.26 2012
28.28 1870
28.3 1902
28.32 1919
28.34 1852
28.36 1896
28.38 1928
28.4 1824
28.42 1894
28.44 1864
28.46 1869
28.48 1854
28.5 1867
28.52 1880
28.54 1934
28.56 1867
28.58 1893
28.6 1909
28.62 1923
28.64 1968
28.66 1930
28.68 1966
28.7 1895
28.72 1791
28.74 1804
28.76 1843
28.78 1886
28.8 1797
28.82 1808
28.84 1863
28.86 1836
28.88 1903
28.9 1874
28.92 1831
28.94 1847
28.96 1881
28.98 1925
29 1859
29.02 1846
29.04 1972
29.06 1970
29.08 1837
29.1 1915
29.12 1960
29.14 2002
29.16 2025
29.18 2037
29.2 2033
29.22 2054
29.24 2089
29.26 1992
29.28 1991
29.3 1989
29.32 1916
29.34 1991
29.36 2021
29.38 1902
29.4 1809
29.42 1805
29.44 1811
29.46 1803
29.48 1752
29.5 1749
29.52 1725
29.54 1790
29.56 1731
29.58 1825
29.6 1678
29.62 1715
29.64 1725
29.66 1707
29.68 1712
29.7 1712
29.72 1711
29.74 1613
29.76 1643
29.78 1643
29.8 1702
29.82 1654
29.84 1658
29.86 1706
29.88 1650
29.9 1643
29.92 1657
29.94 1708
29.96 1667
29.98 1617
30 1682