File: xrd-UiO-67/pxrddata/4-36.ASC
3 1718
3.02 1585
3.04 1510
3.06 1483
3.08 1370
3.1 1386
3.12 1279
3.14 1204
3.16 1210
3.18 1256
3.2 1238
3.22 1283
3.24 1215
3.26 1218
3.28 1219
3.3 1189
3.32 1136
3.34 1213
3.36 1166
3.38 1222
3.4 1168
3.42 1120
3.44 1117
3.46 1145
3.48 1183
3.5 1164
3.52 1173
3.54 1118
3.56 1086
3.58 1114
3.6 1089
3.62 1101
3.64 1150
3.66 1115
3.68 1074
3.7 1081
3.72 1076
3.74 1125
3.76 1135
3.78 1142
3.8 1115
3.82 1121
3.84 1033
3.86 1100
3.88 1119
3.9 1123
3.92 1151
3.94 1194
3.96 1160
3.98 1171
4 1189
4.02 1261
4.04 1219
4.06 1264
4.08 1323
4.1 1334
4.12 1304
4.14 1415
4.16 1356
4.18 1385
4.2 1306
4.22 1278
4.24 1247
4.26 1234
4.28 1091
4.3 1090
4.32 1005
4.34 998
4.36 994
4.38 915
4.4 963
4.42 915
4.44 943
4.46 905
4.48 910
4.5 940
4.52 915
4.54 937
4.56 866
4.58 932
4.6 950
4.62 956
4.64 886
4.66 947
4.68 964
4.7 967
4.72 950
4.74 949
4.76 1004
4.78 975
4.8 1026
4.82 1048
4.84 1008
4.86 1068
4.88 1115
4.9 1069
4.92 1122
4.94 1200
4.96 1244
4.98 1198
5 1296
5.02 1222
5.04 1259
5.06 1307
5.08 1340
5.1 1417
5.12 1494
5.14 1553
5.16 1594
5.18 1714
5.2 1680
5.22 1866
5.24 1916
5.26 2136
5.28 2244
5.3 2308
5.32 2440
5.34 2608
5.36 2832
5.38 2961
5.4 3426
5.42 3688
5.44 3944
5.46 4303
5.48 4423
5.5 4552
5.52 4279
5.54 3882
5.56 3372
5.58 3179
5.6 3055
5.62 3049
5.64 3197
5.66 3242
5.68 3404
5.7 3669
5.72 3998
5.74 4267
5.76 4692
5.78 4997
5.8 5254
5.82 5568
5.84 5601
5.86 5311
5.88 4717
5.9 3754
5.92 2877
5.94 2129
5.96 1650
5.98 1474
6 1214
6.02 1155
6.04 1065
6.06 1031
6.08 983
6.1 931
6.12 979
6.14 936
6.16 911
6.18 917
6.2 958
6.22 918
6.24 940
6.26 895
6.28 902
6.3 899
6.32 864
6.34 855
6.36 874
6.38 869
6.4 908
6.42 864
6.44 857
6.46 834
6.48 966
6.5 960
6.52 930
6.54 887
6.56 953
6.58 927
6.6 923
6.62 980
6.64 993
6.66 997
6.68 987
6.7 1099
6.72 1171
6.74 1130
6.76 1214
6.78 1167
6.8 1248
6.82 1234
6.84 1144
6.86 1092
6.88 1046
6.9 1072
6.92 983
6.94 901
6.96 893
6.98 856
7 794
7.02 820
7.04 805
7.06 813
7.08 797
7.1 823
7.12 809
7.14 801
7.16 858
7.18 739
7.2 746
7.22 750
7.24 758
7.26 732
7.28 773
7.3 782
7.32 786
7.34 754
7.36 752
7.38 747
7.4 771
7.42 812
7.44 797
7.46 767
7.48 735
7.5 774
7.52 781
7.54 757
7.56 769
7.58 801
7.6 740
7.62 768
7.64 751
7.66 762
7.68 789
7.7 765
7.72 788
7.74 776
7.76 742
7.78 822
7.8 714
7.82 740
7.84 815
7.86 775
7.88 767
7.9 783
7.92 808
7.94 782
7.96 733
7.98 760
8 838
8.02 773
8.04 797
8.06 775
8.08 834
8.1 826
8.12 808
8.14 827
8.16 875
8.18 842
8.2 825
8.22 878
8.24 863
8.26 787
8.28 792
8.3 788
8.32 775
8.34 773
8.36 762
8.38 778
8.4 738
8.42 800
8.44 764
8.46 785
8.48 723
8.5 706
8.52 721
8.54 727
8.56 756
8.58 748
8.6 757
8.62 770
8.64 778
8.66 721
8.68 736
8.7 755
8.72 767
8.74 821
8.76 752
8.78 780
8.8 783
8.82 807
8.84 783
8.86 773
8.88 839
8.9 835
8.92 818
8.94 832
8.96 875
8.98 901
9 902
9.02 925
9.04 945
9.06 948
9.08 989
9.1 1022
9.12 1041
9.14 1137
9.16 1152
9.18 1242
9.2 1341
9.22 1402
9.24 1543
9.26 1644
9.28 1755
9.3 2005
9.32 2071
9.34 2312
9.36 2410
9.38 2405
9.4 2338
9.42 2180
9.44 1847
9.46 1641
9.48 1316
9.5 1127
9.52 952
9.54 857
9.56 874
9.58 846
9.6 825
9.62 817
9.64 834
9.66 836
9.68 775
9.7 792
9.72 823
9.74 819
9.76 776
9.78 861
9.8 872
9.82 748
9.84 800
9.86 814
9.88 814
9.9 775
9.92 853
9.94 859
9.96 855
9.98 916
10 862
10.02 919
10.04 973
10.06 916
10.08 902
10.1 961
10.12 1061
10.14 1088
10.16 1087
10.18 1149
10.2 1209
10.22 1167
10.24 1172
10.26 1125
10.28 1092
10.3 989
10.32 943
10.34 923
10.36 842
10.38 824
10.4 837
10.42 789
10.44 834
10.46 802
10.48 793
10.5 831
10.52 845
10.54 845
10.56 908
10.58 873
10.6 899
10.62 956
10.64 958
10.66 1002
10.68 988
10.7 1047
10.72 1096
10.74 1233
10.76 1241
10.78 1322
10.8 1363
10.82 1389
10.84 1459
10.86 1483
10.88 1408
10.9 1452
10.92 1472
10.94 1516
10.96 1682
10.98 1705
11 1721
11.02 1624
11.04 1488
11.06 1344
11.08 1213
11.1 1093
11.12 1024
11.14 912
11.16 820
11.18 878
11.2 812
11.22 805
11.24 830
11.26 852
11.28 799
11.3 794
11.32 823
11.34 882
11.36 849
11.38 913
11.4 908
11.42 934
11.44 918
11.46 1014
11.48 1015
11.5 1064
11.52 1071
11.54 1164
11.56 1131
11.58 1069
11.6 1025
11.62 968
11.64 988
11.66 934
11.68 874
11.7 849
11.72 796
11.74 841
11.76 798
11.78 778
11.8 796
11.82 805
11.84 735
11.86 789
11.88 737
11.9 793
11.92 734
11.94 783
11.96 786
11.98 789
12 787
12.02 817
12.04 796
12.06 836
12.08 821
12.1 856
12.12 861
12.14 918
12.16 904
12.18 907
12.2 897
12.22 928
12.24 962
12.26 927
12.28 1034
12.3 952
12.32 961
12.34 922
12.36 881
12.38 880
12.4 815
12.42 829
12.44 805
12.46 799
12.48 828
12.5 828
12.52 747
12.54 773
12.56 790
12.58 760
12.6 824
12.62 800
12.64 769
12.66 785
12.68 774
12.7 749
12.72 792
12.74 767
12.76 787
12.78 770
12.8 798
12.82 791
12.84 783
12.86 754
12.88 814
12.9 799
12.92 790
12.94 783
12.96 781
12.98 762
13 816
13.02 774
13.04 788
13.06 784
13.08 756
13.1 838
13.12 831
13.14 764
13.16 819
13.18 784
13.2 837
13.22 787
13.24 835
13.26 838
13.28 834
13.3 849
13.32 846
13.34 854
13.36 873
13.38 863
13.4 877
13.42 858
13.44 829
13.46 843
13.48 897
13.5 849
13.52 933
13.54 856
13.56 917
13.58 822
13.6 883
13.62 799
13.64 853
13.66 848
13.68 804
13.7 849
13.72 808
13.74 812
13.76 847
13.78 875
13.8 818
13.82 765
13.84 845
13.86 851
13.88 837
13.9 799
13.92 831
13.94 838
13.96 827
13.98 853
14 843
14.02 821
14.04 829
14.06 801
14.08 822
14.1 882
14.12 840
14.14 886
14.16 868
14.18 877
14.2 871
14.22 853
14.24 934
14.26 946
14.28 904
14.3 941
14.32 988
14.34 931
14.36 919
14.38 953
14.4 937
14.42 972
14.44 940
14.46 984
14.48 912
14.5 922
14.52 891
14.54 940
14.56 893
14.58 929
14.6 889
14.62 973
14.64 871
14.66 968
14.68 924
14.7 865
14.72 941
14.74 941
14.76 967
14.78 998
14.8 985
14.82 979
14.84 1077
14.86 983
14.88 1016
14.9 997
14.92 990
14.94 980
14.96 1026
14.98 956
15 972
15.02 964
15.04 931
15.06 983
15.08 909
15.1 956
15.12 917
15.14 1001
15.16 991
15.18 990
15.2 1014
15.22 1001
15.24 1044
15.26 1006
15.28 1076
15.3 1010
15.32 979
15.34 945
15.36 965
15.38 968
15.4 1015
15.42 974
15.44 1017
15.46 962
15.48 985
15.5 976
15.52 968
15.54 1031
15.56 1022
15.58 889
15.6 933
15.62 991
15.64 978
15.66 1004
15.68 1011
15.7 984
15.72 958
15.74 1035
15.76 1017
15.78 1080
15.8 1034
15.82 1023
15.84 1049
15.86 1032
15.88 983
15.9 1044
15.92 1002
15.94 1008
15.96 1017
15.98 994
16 1079
16.02 1046
16.04 1043
16.06 1000
16.08 1063
16.1 1043
16.12 1095
16.14 1081
16.16 1055
16.18 1078
16.2 1140
16.22 1098
16.24 1180
16.26 1126
16.28 1180
16.3 1198
16.32 1191
16.34 1189
16.36 1173
16.38 1200
16.4 1128
16.42 1169
16.44 1129
16.46 1127
16.48 1162
16.5 1147
16.52 1144
16.54 1175
16.56 1164
16.58 1151
16.6 1127
16.62 1024
16.64 1117
16.66 1138
16.68 1131
16.7 1107
16.72 1100
16.74 1054
16.76 1113
16.78 1178
16.8 1098
16.82 1131
16.84 1134
16.86 1203
16.88 1111
16.9 1157
16.92 1220
16.94 1178
16.96 1264
16.98 1275
17 1217
17.02 1277
17.04 1322
17.06 1225
17.08 1256
17.1 1257
17.12 1233
17.14 1141
17.16 1229
17.18 1222
17.2 1219
17.22 1222
17.24 1299
17.26 1272
17.28 1277
17.3 1330
17.32 1264
17.34 1287
17.36 1272
17.38 1293
17.4 1295
17.42 1276
17.44 1285
17.46 1199
17.48 1266
17.5 1261
17.52 1284
17.54 1302
17.56 1273
17.58 1271
17.6 1279
17.62 1329
17.64 1303
17.66 1298
17.68 1322
17.7 1295
17.72 1238
17.74 1333
17.76 1233
17.78 1261
17.8 1372
17.82 1329
17.84 1345
17.86 1403
17.88 1402
17.9 1419
17.92 1399
17.94 1333
17.96 1365
17.98 1347
18 1398
18.02 1282
18.04 1377
18.06 1387
18.08 1352
18.1 1312
18.12 1307
18.14 1297
18.16 1350
18.18 1371
18.2 1394
18.22 1394
18.24 1368
18.26 1387
18.28 1357
18.3 1336
18.32 1348
18.34 1423
18.36 1349
18.38 1393
18.4 1428
18.42 1429
18.44 1479
18.46 1384
18.48 1400
18.5 1400
18.52 1345
18.54 1484
18.56 1477
18.58 1457
18.6 1450
18.62 1450
18.64 1496
18.66 1556
18.68 1476
18.7 1516
18.72 1539
18.74 1651
18.76 1588
18.78 1626
18.8 1593
18.82 1596
18.84 1594
18.86 1593
18.88 1545
18.9 1575
18.92 1543
18.94 1538
18.96 1572
18.98 1570
19 1604
19.02 1560
19.04 1610
19.06 1539
19.08 1611
19.1 1715
19.12 1800
19.14 1834
19.16 1773
19.18 1786
19.2 1763
19.22 1703
19.24 1708
19.26 1623
19.28 1675
19.3 1639
19.32 1638
19.34 1610
19.36 1643
19.38 1715
19.4 1653
19.42 1796
19.44 1754
19.46 1905
19.48 1870
19.5 1856
19.52 1902
19.54 1916
19.56 1928
19.58 2047
19.6 2014
19.62 1912
19.64 1793
19.66 1850
19.68 1722
19.7 1721
19.72 1643
19.74 1647
19.76 1643
19.78 1686
19.8 1621
19.82 1677
19.84 1699
19.86 1796
19.88 1795
19.9 1852
19.92 1781
19.94 1689
19.96 1660
19.98 1719
20 1690
20.02 1686
20.04 1678
20.06 1727
20.08 1619
20.1 1711
20.12 1728
20.14 1701
20.16 1713
20.18 1737
20.2 1819
20.22 1723
20.24 1743
20.26 1746
20.28 1780
20.3 1857
20.32 1854
20.34 1816
20.36 1835
20.38 1792
20.4 1714
20.42 1836
20.44 1858
20.46 1739
20.48 1852
20.5 1739
20.52 1698
20.54 1705
20.56 1735
20.58 1796
20.6 1701
20.62 1748
20.64 1766
20.66 1796
20.68 1694
20.7 1774
20.72 1722
20.74 1745
20.76 1735
20.78 1715
20.8 1772
20.82 1740
20.84 1709
20.86 1672
20.88 1770
20.9 1709
20.92 1666
20.94 1803
20.96 1671
20.98 1767
21 1698
21.02 1825
21.04 1737
21.06 1799
21.08 1772
21.1 1756
21.12 1782
21.14 1769
21.16 1790
21.18 1799
21.2 1833
21.22 1692
21.24 1707
21.26 1664
21.28 1744
21.3 1763
21.32 1751
21.34 1702
21.36 1714
21.38 1755
21.4 1668
21.42 1676
21.44 1701
21.46 1705
21.48 1806
21.5 1801
21.52 1723
21.54 1787
21.56 1771
21.58 1741
21.6 1758
21.62 1753
21.64 1794
21.66 1701
21.68 1744
21.7 1796
21.72 1767
21.74 1759
21.76 1717
21.78 1769
21.8 1773
21.82 1828
21.84 1810
21.86 1768
21.88 1772
21.9 1778
21.92 1799
21.94 1846
21.96 1893
21.98 1931
22 1902
22.02 1906
22.04 1882
22.06 1895
22.08 1805
22.1 1822
22.12 1791
22.14 1792
22.16 1771
22.18 1721
22.2 1709
22.22 1691
22.24 1719
22.26 1748
22.28 1728
22.3 1758
22.32 1746
22.34 1723
22.36 1670
22.38 1710
22.4 1701
22.42 1762
22.44 1812
22.46 1743
22.48 1806
22.5 1789
22.52 1847
22.54 1760
22.56 1798
22.58 1699
22.6 1746
22.62 1735
22.64 1708
22.66 1707
22.68 1699
22.7 1655
22.72 1704
22.74 1672
22.76 1680
22.78 1665
22.8 1691
22.82 1698
22.84 1706
22.86 1684
22.88 1726
22.9 1747
22.92 1725
22.94 1724
22.96 1650
22.98 1705
23 1682
23.02 1704
23.04 1768
23.06 1845
23.08 1819
23.1 1836
23.12 1823
23.14 1823
23.16 1889
23.18 1746
23.2 1791
23.22 1798
23.24 1713
23.26 1759
23.28 1670
23.3 1700
23.32 1589
23.34 1646
23.36 1695
23.38 1640
23.4 1557
23.42 1645
23.44 1632
23.46 1677
23.48 1638
23.5 1651
23.52 1720
23.54 1678
23.56 1698
23.58 1739
23.6 1856
23.62 1740
23.64 1808
23.66 1855
23.68 1877
23.7 1785
23.72 1710
23.74 1667
23.76 1601
23.78 1634
23.8 1591
23.82 1609
23.84 1618
23.86 1612
23.88 1620
23.9 1607
23.92 1641
23.94 1669
23.96 1562
23.98 1602
24 1596
24.02 1617
24.04 1485
24.06 1511
24.08 1502
24.1 1523
24.12 1521
24.14 1436
24.16 1520
24.18 1489
24.2 1505
24.22 1478
24.24 1490
24.26 1494
24.28 1532
24.3 1464
24.32 1536
24.34 1541
24.36 1512
24.38 1554
24.4 1439
24.42 1615
24.44 1575
24.46 1580
24.48 1562
24.5 1603
24.52 1625
24.54 1650
24.56 1634
24.58 1639
24.6 1665
24.62 1566
24.64 1643
24.66 1589
24.68 1653
24.7 1641
24.72 1680
24.74 1744
24.76 1767
24.78 1795
24.8 1826
24.82 1899
24.84 1899
24.86 1842
24.88 1740
24.9 1650
24.92 1741
24.94 1656
24.96 1678
24.98 1615
25 1535
25.02 1542
25.04 1595
25.06 1599
25.08 1664
25.1 1658
25.12 1691
25.14 1684
25.16 1699
25.18 1653
25.2 1604
25.22 1560
25.24 1507
25.26 1455
25.28 1538
25.3 1450
25.32 1516
25.34 1459
25.36 1449
25.38 1489
25.4 1525
25.42 1428
25.44 1463
25.46 1492
25.48 1558
25.5 1549
25.52 1628
25.54 1634
25.56 1633
25.58 1618
25.6 1616
25.62 1603
25.64 1545
25.66 1604
25.68 1536
25.7 1483
25.72 1455
25.74 1473
25.76 1479
25.78 1403
25.8 1401
25.82 1366
25.84 1360
25.86 1355
25.88 1355
25.9 1445
25.92 1447
25.94 1308
25.96 1347
25.98 1413
26 1377
26.02 1398
26.04 1402
26.06 1366
26.08 1291
26.1 1341
26.12 1408
26.14 1418
26.16 1387
26.18 1342
26.2 1380
26.22 1321
26.24 1410
26.26 1386
26.28 1440
26.3 1431
26.32 1384
26.34 1351
26.36 1390
26.38 1355
26.4 1362
26.42 1318
26.44 1376
26.46 1337
26.48 1357
26.5 1322
26.52 1359
26.54 1388
26.56 1300
26.58 1254
26.6 1308
26.62 1337
26.64 1318
26.66 1290
26.68 1322
26.7 1316
26.72 1432
26.74 1355
26.76 1387
26.78 1395
26.8 1409
26.82 1458
26.84 1527
26.86 1492
26.88 1502
26.9 1459
26.92 1488
26.94 1432
26.96 1412
26.98 1440
27 1473
27.02 1440
27.04 1404
27.06 1453
27.08 1471
27.1 1568
27.12 1541
27.14 1586
27.16 1630
27.18 1622
27.2 1629
27.22 1615
27.24 1611
27.26 1518
27.28 1454
27.3 1424
27.32 1415
27.34 1367
27.36 1397
27.38 1385
27.4 1390
27.42 1401
27.44 1380
27.46 1425
27.48 1322
27.5 1286
27.52 1249
27.54 1298
27.56 1271
27.58 1231
27.6 1221
27.62 1236
27.64 1279
27.66 1296
27.68 1266
27.7 1388
27.72 1276
27.74 1328
27.76 1336
27.78 1262
27.8 1376
27.82 1337
27.84 1324
27.86 1342
27.88 1347
27.9 1309
27.92 1301
27.94 1249
27.96 1322
27.98 1339
28 1262
28.02 1284
28.04 1250
28.06 1201
28.08 1248
28.1 1270
28.12 1307
28.14 1298
28.16 1304
28.18 1331
28.2 1359
28.22 1394
28.24 1396
28.26 1361
28.28 1460
28.3 1459
28.32 1568
28.34 1497
28.36 1449
28.38 1495
28.4 1350
28.42 1387
28.44 1344
28.46 1333
28.48 1285
28.5 1442
28.52 1274
28.54 1369
28.56 1307
28.58 1315
28.6 1327
28.62 1325
28.64 1350
28.66 1369
28.68 1393
28.7 1457
28.72 1499
28.74 1498
28.76 1559
28.78 1457
28.8 1519
28.82 1488
28.84 1427
28.86 1352
28.88 1381
28.9 1339
28.92 1297
28.94 1271
28.96 1301
28.98 1276
29 1265
29.02 1285
29.04 1332
29.06 1275
29.08 1237
29.1 1193
29.12 1268
29.14 1240
29.16 1181
29.18 1236
29.2 1234
29.22 1210
29.24 1246
29.26 1127
29.28 1212
29.3 1166
29.32 1144
29.34 1152
29.36 1099
29.38 1057
29.4 1155
29.42 1187
29.44 1076
29.46 1126
29.48 1094
29.5 1164
29.52 1144
29.54 1144
29.56 1133
29.58 1131
29.6 1056
29.62 1118
29.64 1149
29.66 1125
29.68 1192
29.7 1135
29.72 1199
29.74 1201
29.76 1173
29.78 1226
29.8 1266
29.82 1314
29.84 1363
29.86 1315
29.88 1380
29.9 1378
29.92 1290
29.94 1317
29.96 1257
29.98 1276
30 1147