File: xrd-UiO-67/pxrddata/4-37.ASC
3 2166
3.02 1930
3.04 1827
3.06 1757
3.08 1631
3.1 1657
3.12 1605
3.14 1519
3.16 1585
3.18 1513
3.2 1524
3.22 1517
3.24 1530
3.26 1503
3.28 1537
3.3 1472
3.32 1446
3.34 1494
3.36 1448
3.38 1409
3.4 1409
3.42 1455
3.44 1428
3.46 1389
3.48 1348
3.5 1419
3.52 1274
3.54 1364
3.56 1377
3.58 1340
3.6 1337
3.62 1337
3.64 1298
3.66 1315
3.68 1300
3.7 1313
3.72 1319
3.74 1253
3.76 1210
3.78 1236
3.8 1254
3.82 1224
3.84 1252
3.86 1220
3.88 1262
3.9 1260
3.92 1225
3.94 1213
3.96 1216
3.98 1250
4 1337
4.02 1256
4.04 1362
4.06 1305
4.08 1286
4.1 1306
4.12 1346
4.14 1308
4.16 1336
4.18 1322
4.2 1283
4.22 1275
4.24 1213
4.26 1209
4.28 1133
4.3 1198
4.32 1131
4.34 1076
4.36 1119
4.38 1132
4.4 1109
4.42 1096
4.44 1058
4.46 1095
4.48 1145
4.5 1138
4.52 1061
4.54 1085
4.56 1146
4.58 1128
4.6 1071
4.62 1116
4.64 1101
4.66 1044
4.68 1123
4.7 1131
4.72 1087
4.74 1080
4.76 1126
4.78 1157
4.8 1106
4.82 1079
4.84 1086
4.86 1084
4.88 1169
4.9 1082
4.92 1130
4.94 1034
4.96 1073
4.98 1144
5 1179
5.02 1087
5.04 1120
5.06 1195
5.08 1150
5.1 1138
5.12 1196
5.14 1177
5.16 1160
5.18 1176
5.2 1225
5.22 1239
5.24 1326
5.26 1302
5.28 1262
5.3 1421
5.32 1411
5.34 1419
5.36 1503
5.38 1555
5.4 1578
5.42 1709
5.44 1783
5.46 2003
5.48 1991
5.5 1874
5.52 1619
5.54 1524
5.56 1538
5.58 1501
5.6 1478
5.62 1583
5.64 1630
5.66 1727
5.68 1717
5.7 1805
5.72 1909
5.74 1920
5.76 2235
5.78 2324
5.8 2639
5.82 2961
5.84 2849
5.86 2653
5.88 2107
5.9 1518
5.92 1258
5.94 1165
5.96 1110
5.98 1038
6 994
6.02 1016
6.04 975
6.06 996
6.08 1029
6.1 960
6.12 935
6.14 941
6.16 945
6.18 948
6.2 949
6.22 978
6.24 963
6.26 947
6.28 932
6.3 938
6.32 918
6.34 1004
6.36 920
6.38 927
6.4 963
6.42 885
6.44 945
6.46 877
6.48 883
6.5 891
6.52 872
6.54 900
6.56 967
6.58 911
6.6 958
6.62 908
6.64 959
6.66 979
6.68 960
6.7 1006
6.72 961
6.74 970
6.76 974
6.78 1041
6.8 1061
6.82 1088
6.84 1008
6.86 927
6.88 989
6.9 857
6.92 940
6.94 927
6.96 920
6.98 857
7 807
7.02 886
7.04 882
7.06 823
7.08 849
7.1 866
7.12 826
7.14 900
7.16 881
7.18 841
7.2 833
7.22 875
7.24 838
7.26 824
7.28 784
7.3 850
7.32 871
7.34 808
7.36 817
7.38 796
7.4 820
7.42 818
7.44 805
7.46 799
7.48 846
7.5 865
7.52 840
7.54 814
7.56 826
7.58 840
7.6 884
7.62 820
7.64 788
7.66 810
7.68 832
7.7 771
7.72 841
7.74 868
7.76 816
7.78 801
7.8 819
7.82 786
7.84 828
7.86 868
7.88 802
7.9 797
7.92 837
7.94 859
7.96 873
7.98 819
8 824
8.02 832
8.04 826
8.06 888
8.08 797
8.1 823
8.12 879
8.14 836
8.16 878
8.18 846
8.2 917
8.22 862
8.24 852
8.26 869
8.28 850
8.3 848
8.32 875
8.34 844
8.36 802
8.38 811
8.4 826
8.42 844
8.44 845
8.46 833
8.48 849
8.5 815
8.52 882
8.54 835
8.56 793
8.58 806
8.6 814
8.62 747
8.64 843
8.66 812
8.68 837
8.7 849
8.72 835
8.74 798
8.76 869
8.78 855
8.8 876
8.82 829
8.84 889
8.86 852
8.88 817
8.9 825
8.92 804
8.94 853
8.96 871
8.98 815
9 870
9.02 875
9.04 893
9.06 915
9.08 921
9.1 910
9.12 906
9.14 931
9.16 1014
9.18 914
9.2 939
9.22 1013
9.24 1018
9.26 1019
9.28 1106
9.3 1100
9.32 1193
9.34 1282
9.36 1368
9.38 1383
9.4 1472
9.42 1281
9.44 1160
9.46 1022
9.48 951
9.5 929
9.52 937
9.54 890
9.56 906
9.58 913
9.6 891
9.62 902
9.64 902
9.66 901
9.68 904
9.7 898
9.72 925
9.74 908
9.76 926
9.78 894
9.8 945
9.82 880
9.84 913
9.86 876
9.88 914
9.9 968
9.92 889
9.94 962
9.96 921
9.98 981
10 925
10.02 894
10.04 940
10.06 904
10.08 980
10.1 981
10.12 950
10.14 1001
10.16 1071
10.18 1055
10.2 1097
10.22 1076
10.24 1105
10.26 1055
10.28 1017
10.3 900
10.32 902
10.34 892
10.36 964
10.38 875
10.4 883
10.42 851
10.44 900
10.46 920
10.48 885
10.5 870
10.52 877
10.54 970
10.56 883
10.58 881
10.6 893
10.62 890
10.64 918
10.66 935
10.68 936
10.7 895
10.72 928
10.74 1014
10.76 945
10.78 944
10.8 1058
10.82 1084
10.84 1112
10.86 1036
10.88 1029
10.9 1057
10.92 1053
10.94 1115
10.96 1144
10.98 1187
11 1284
11.02 1316
11.04 1181
11.06 1076
11.08 981
11.1 924
11.12 855
11.14 898
11.16 910
11.18 882
11.2 926
11.22 907
11.24 913
11.26 845
11.28 869
11.3 881
11.32 900
11.34 911
11.36 909
11.38 898
11.4 836
11.42 883
11.44 930
11.46 984
11.48 938
11.5 989
11.52 970
11.54 987
11.56 990
11.58 988
11.6 1002
11.62 961
11.64 894
11.66 952
11.68 869
11.7 915
11.72 893
11.74 885
11.76 874
11.78 901
11.8 853
11.82 866
11.84 864
11.86 825
11.88 863
11.9 860
11.92 893
11.94 863
11.96 877
11.98 863
12 912
12.02 866
12.04 871
12.06 885
12.08 871
12.1 857
12.12 875
12.14 912
12.16 894
12.18 895
12.2 902
12.22 901
12.24 884
12.26 943
12.28 936
12.3 948
12.32 898
12.34 889
12.36 873
12.38 886
12.4 850
12.42 859
12.44 862
12.46 896
12.48 869
12.5 890
12.52 860
12.54 861
12.56 854
12.58 901
12.6 936
12.62 902
12.64 929
12.66 897
12.68 871
12.7 878
12.72 834
12.74 938
12.76 921
12.78 876
12.8 903
12.82 856
12.84 927
12.86 884
12.88 904
12.9 893
12.92 880
12.94 894
12.96 869
12.98 896
13 910
13.02 883
13.04 948
13.06 856
13.08 823
13.1 901
13.12 842
13.14 869
13.16 904
13.18 910
13.2 915
13.22 970
13.24 940
13.26 882
13.28 923
13.3 908
13.32 879
13.34 915
13.36 936
13.38 885
13.4 958
13.42 947
13.44 963
13.46 916
13.48 925
13.5 934
13.52 941
13.54 993
13.56 927
13.58 872
13.6 947
13.62 973
13.64 963
13.66 872
13.68 927
13.7 948
13.72 900
13.74 903
13.76 969
13.78 927
13.8 969
13.82 912
13.84 889
13.86 948
13.88 875
13.9 971
13.92 1018
13.94 960
13.96 984
13.98 948
14 961
14.02 944
14.04 938
14.06 942
14.08 969
14.1 1003
14.12 945
14.14 965
14.16 957
14.18 976
14.2 964
14.22 1011
14.24 999
14.26 998
14.28 1038
14.3 989
14.32 1012
14.34 961
14.36 1001
14.38 995
14.4 1012
14.42 1022
14.44 1046
14.46 996
14.48 1016
14.5 968
14.52 1013
14.54 1006
14.56 956
14.58 932
14.6 1018
14.62 994
14.64 981
14.66 1016
14.68 1063
14.7 973
14.72 954
14.74 1039
14.76 1077
14.78 961
14.8 1039
14.82 1059
14.84 1033
14.86 1050
14.88 1066
14.9 1103
14.92 976
14.94 1043
14.96 1020
14.98 1023
15 1016
15.02 1011
15.04 1086
15.06 1070
15.08 994
15.1 1003
15.12 1067
15.14 1111
15.16 1086
15.18 1060
15.2 1122
15.22 1067
15.24 1040
15.26 1095
15.28 1045
15.3 1083
15.32 1083
15.34 1087
15.36 1093
15.38 1086
15.4 1086
15.42 1056
15.44 1053
15.46 1077
15.48 1092
15.5 1109
15.52 1147
15.54 993
15.56 1040
15.58 1030
15.6 1113
15.62 1125
15.64 1036
15.66 1083
15.68 1118
15.7 1109
15.72 1092
15.74 1107
15.76 1125
15.78 1175
15.8 1155
15.82 1078
15.84 1125
15.86 1072
15.88 1080
15.9 1077
15.92 1101
15.94 1141
15.96 1080
15.98 1177
16 1153
16.02 1152
16.04 1159
16.06 1141
16.08 1100
16.1 1142
16.12 1186
16.14 1190
16.16 1136
16.18 1210
16.2 1147
16.22 1111
16.24 1198
16.26 1206
16.28 1131
16.3 1247
16.32 1224
16.34 1232
16.36 1196
16.38 1203
16.4 1213
16.42 1201
16.44 1167
16.46 1225
16.48 1241
16.5 1239
16.52 1188
16.54 1259
16.56 1224
16.58 1235
16.6 1290
16.62 1216
16.64 1218
16.66 1192
16.68 1270
16.7 1245
16.72 1232
16.74 1245
16.76 1273
16.78 1254
16.8 1253
16.82 1274
16.84 1279
16.86 1348
16.88 1308
16.9 1311
16.92 1378
16.94 1417
16.96 1460
16.98 1571
17 1669
17.02 1688
17.04 1709
17.06 1659
17.08 1584
17.1 1433
17.12 1384
17.14 1352
17.16 1311
17.18 1324
17.2 1275
17.22 1268
17.24 1327
17.26 1359
17.28 1350
17.3 1378
17.32 1425
17.34 1337
17.36 1416
17.38 1331
17.4 1331
17.42 1366
17.44 1310
17.46 1305
17.48 1327
17.5 1327
17.52 1325
17.54 1325
17.56 1377
17.58 1376
17.6 1393
17.62 1323
17.64 1395
17.66 1406
17.68 1414
17.7 1361
17.72 1369
17.74 1408
17.76 1385
17.78 1290
17.8 1408
17.82 1421
17.84 1394
17.86 1418
17.88 1460
17.9 1417
17.92 1364
17.94 1478
17.96 1444
17.98 1418
18 1413
18.02 1485
18.04 1432
18.06 1427
18.08 1485
18.1 1456
18.12 1478
18.14 1445
18.16 1432
18.18 1449
18.2 1462
18.22 1482
18.24 1480
18.26 1482
18.28 1460
18.3 1487
18.32 1474
18.34 1510
18.36 1532
18.38 1474
18.4 1438
18.42 1515
18.44 1475
18.46 1489
18.48 1513
18.5 1510
18.52 1619
18.54 1539
18.56 1565
18.58 1496
18.6 1557
18.62 1552
18.64 1483
18.66 1534
18.68 1521
18.7 1626
18.72 1580
18.74 1613
18.76 1607
18.78 1680
18.8 1579
18.82 1631
18.84 1578
18.86 1595
18.88 1648
18.9 1571
18.92 1599
18.94 1642
18.96 1575
18.98 1604
19 1671
19.02 1639
19.04 1722
19.06 1689
19.08 1678
19.1 1722
19.12 1702
19.14 1751
19.16 1812
19.18 1765
19.2 1707
19.22 1795
19.24 1724
19.26 1606
19.28 1630
19.3 1564
19.32 1700
19.34 1615
19.36 1624
19.38 1720
19.4 1682
19.42 1629
19.44 1754
19.46 1734
19.48 1815
19.5 1759
19.52 1807
19.54 1757
19.56 1799
19.58 1826
19.6 1935
19.62 1748
19.64 1813
19.66 1732
19.68 1677
19.7 1729
19.72 1710
19.74 1737
19.76 1714
19.78 1740
19.8 1713
19.82 1730
19.84 1772
19.86 1760
19.88 1835
19.9 1840
19.92 1822
19.94 1808
19.96 1774
19.98 1805
20 1748
20.02 1734
20.04 1765
20.06 1788
20.08 1734
20.1 1693
20.12 1807
20.14 1715
20.16 1843
20.18 1775
20.2 1849
20.22 1803
20.24 1860
20.26 1818
20.28 1776
20.3 1851
20.32 1833
20.34 1823
20.36 1922
20.38 1798
20.4 1791
20.42 1708
20.44 1796
20.46 1827
20.48 1876
20.5 1785
20.52 1810
20.54 1780
20.56 1805
20.58 1817
20.6 1756
20.62 1778
20.64 1794
20.66 1836
20.68 1881
20.7 1813
20.72 1774
20.74 1831
20.76 1805
20.78 1872
20.8 1898
20.82 1935
20.84 1849
20.86 1813
20.88 1831
20.9 1823
20.92 1735
20.94 1709
20.96 1808
20.98 1785
21 1866
21.02 1864
21.04 1867
21.06 1854
21.08 1858
21.1 1871
21.12 1861
21.14 1923
21.16 1883
21.18 1931
21.2 1940
21.22 1858
21.24 1865
21.26 1798
21.28 1842
21.3 1868
21.32 1840
21.34 1738
21.36 1842
21.38 1826
21.4 1883
21.42 1734
21.44 1867
21.46 1812
21.48 1896
21.5 1883
21.52 1780
21.54 1844
21.56 1867
21.58 1861
21.6 1783
21.62 1853
21.64 1912
21.66 1859
21.68 1952
21.7 1863
21.72 1890
21.74 1902
21.76 1796
21.78 1869
21.8 1924
21.82 1923
21.84 1829
21.86 1852
21.88 1903
21.9 1917
21.92 1905
21.94 1893
21.96 1893
21.98 1978
22 1973
22.02 1952
22.04 2028
22.06 1988
22.08 1984
22.1 1935
22.12 1829
22.14 1823
22.16 1890
22.18 1807
22.2 1851
22.22 1811
22.24 1899
22.26 1852
22.28 1837
22.3 1866
22.32 1742
22.34 1830
22.36 1892
22.38 1828
22.4 1835
22.42 1912
22.44 1873
22.46 1878
22.48 1893
22.5 1925
22.52 1844
22.54 1900
22.56 1898
22.58 1825
22.6 1864
22.62 1808
22.64 1824
22.66 1789
22.68 1803
22.7 1831
22.72 1865
22.74 1833
22.76 1763
22.78 1850
22.8 1778
22.82 1822
22.84 1864
22.86 1821
22.88 1903
22.9 1861
22.92 1878
22.94 1798
22.96 1887
22.98 1849
23 1839
23.02 1850
23.04 1897
23.06 1865
23.08 1902
23.1 1946
23.12 1993
23.14 1906
23.16 1927
23.18 1880
23.2 1920
23.22 1828
23.24 1785
23.26 1803
23.28 1803
23.3 1862
23.32 1952
23.34 1768
23.36 1816
23.38 1829
23.4 1750
23.42 1779
23.44 1824
23.46 1806
23.48 1755
23.5 1741
23.52 1775
23.54 1803
23.56 1707
23.58 1773
23.6 1832
23.62 1807
23.64 1795
23.66 1829
23.68 1836
23.7 1837
23.72 1803
23.74 1846
23.76 1801
23.78 1797
23.8 1775
23.82 1745
23.84 1753
23.86 1738
23.88 1848
23.9 1801
23.92 1808
23.94 1754
23.96 1755
23.98 1821
24 1730
24.02 1736
24.04 1686
24.06 1701
24.08 1702
24.1 1768
24.12 1753
24.14 1786
24.16 1730
24.18 1793
24.2 1692
24.22 1740
24.24 1794
24.26 1718
24.28 1727
24.3 1749
24.32 1800
24.34 1736
24.36 1666
24.38 1724
24.4 1731
24.42 1716
24.44 1774
24.46 1731
24.48 1788
24.5 1791
24.52 1838
24.54 1851
24.56 1805
24.58 1827
24.6 1830
24.62 1771
24.64 1742
24.66 1815
24.68 1821
24.7 1778
24.72 1780
24.74 1798
24.76 1833
24.78 1897
24.8 1792
24.82 1793
24.84 1795
24.86 1860
24.88 1814
24.9 1792
24.92 1777
24.94 1710
24.96 1716
24.98 1731
25 1773
25.02 1748
25.04 1734
25.06 1782
25.08 1725
25.1 1742
25.12 1765
25.14 1741
25.16 1758
25.18 1760
25.2 1775
25.22 1755
25.24 1771
25.26 1731
25.28 1809
25.3 1713
25.32 1784
25.34 1747
25.36 1679
25.38 1702
25.4 1703
25.42 1661
25.44 1701
25.46 1688
25.48 1677
25.5 1708
25.52 1684
25.54 1766
25.56 1702
25.58 1739
25.6 1786
25.62 1675
25.64 1735
25.66 1588
25.68 1662
25.7 1515
25.72 1595
25.74 1567
25.76 1609
25.78 1595
25.8 1632
25.82 1554
25.84 1623
25.86 1585
25.88 1556
25.9 1533
25.92 1581
25.94 1562
25.96 1587
25.98 1604
26 1546
26.02 1527
26.04 1584
26.06 1597
26.08 1528
26.1 1529
26.12 1583
26.14 1538
26.16 1577
26.18 1547
26.2 1583
26.22 1569
26.24 1548
26.26 1596
26.28 1625
26.3 1628
26.32 1637
26.34 1569
26.36 1566
26.38 1528
26.4 1577
26.42 1578
26.44 1530
26.46 1544
26.48 1584
26.5 1523
26.52 1540
26.54 1500
26.56 1517
26.58 1576
26.6 1499
26.62 1522
26.64 1522
26.66 1551
26.68 1559
26.7 1505
26.72 1564
26.74 1523
26.76 1587
26.78 1597
26.8 1688
26.82 1644
26.84 1654
26.86 1632
26.88 1679
26.9 1670
26.92 1644
26.94 1663
26.96 1552
26.98 1560
27 1606
27.02 1520
27.04 1549
27.06 1504
27.08 1604
27.1 1650
27.12 1631
27.14 1593
27.16 1678
27.18 1611
27.2 1664
27.22 1638
27.24 1627
27.26 1528
27.28 1552
27.3 1524
27.32 1463
27.34 1418
27.36 1474
27.38 1518
27.4 1488
27.42 1482
27.44 1551
27.46 1524
27.48 1453
27.5 1431
27.52 1439
27.54 1458
27.56 1462
27.58 1366
27.6 1486
27.62 1441
27.64 1486
27.66 1459
27.68 1512
27.7 1453
27.72 1510
27.74 1544
27.76 1426
27.78 1471
27.8 1458
27.82 1490
27.84 1512
27.86 1441
27.88 1467
27.9 1441
27.92 1436
27.94 1463
27.96 1434
27.98 1417
28 1378
28.02 1462
28.04 1413
28.06 1457
28.08 1399
28.1 1373
28.12 1416
28.14 1409
28.16 1426
28.18 1421
28.2 1454
28.22 1510
28.24 1490
28.26 1537
28.28 1542
28.3 1506
28.32 1599
28.34 1558
28.36 1571
28.38 1495
28.4 1536
28.42 1454
28.44 1504
28.46 1464
28.48 1458
28.5 1454
28.52 1432
28.54 1399
28.56 1456
28.58 1401
28.6 1355
28.62 1411
28.64 1433
28.66 1378
28.68 1459
28.7 1456
28.72 1505
28.74 1449
28.76 1507
28.78 1470
28.8 1505
28.82 1488
28.84 1455
28.86 1378
28.88 1417
28.9 1386
28.92 1359
28.94 1396
28.96 1441
28.98 1418
29 1391
29.02 1462
29.04 1399
29.06 1398
29.08 1415
29.1 1356
29.12 1418
29.14 1377
29.16 1350
29.18 1387
29.2 1373
29.22 1299
29.24 1390
29.26 1330
29.28 1399
29.3 1331
29.32 1300
29.34 1345
29.36 1328
29.38 1244
29.4 1297
29.42 1254
29.44 1268
29.46 1292
29.48 1260
29.5 1353
29.52 1354
29.54 1269
29.56 1283
29.58 1285
29.6 1320
29.62 1303
29.64 1266
29.66 1289
29.68 1267
29.7 1301
29.72 1315
29.74 1374
29.76 1295
29.78 1368
29.8 1403
29.82 1380
29.84 1363
29.86 1419
29.88 1471
29.9 1354
29.92 1399
29.94 1309
29.96 1360
29.98 1305
30 1284