File: xrd-UiO-67/pxrddata/4-38.ASC
3 2520
3.02 2307
3.04 2184
3.06 2144
3.08 2121
3.1 1968
3.12 1917
3.14 1930
3.16 1888
3.18 1917
3.2 1803
3.22 1793
3.24 1792
3.26 1775
3.28 1653
3.3 1761
3.32 1739
3.34 1656
3.36 1634
3.38 1621
3.4 1645
3.42 1610
3.44 1623
3.46 1631
3.48 1531
3.5 1509
3.52 1584
3.54 1633
3.56 1542
3.58 1476
3.6 1543
3.62 1494
3.64 1469
3.66 1482
3.68 1458
3.7 1457
3.72 1499
3.74 1453
3.76 1397
3.78 1408
3.8 1428
3.82 1349
3.84 1386
3.86 1400
3.88 1339
3.9 1350
3.92 1360
3.94 1340
3.96 1274
3.98 1354
4 1250
4.02 1305
4.04 1246
4.06 1252
4.08 1283
4.1 1247
4.12 1229
4.14 1221
4.16 1229
4.18 1250
4.2 1238
4.22 1208
4.24 1197
4.26 1259
4.28 1195
4.3 1203
4.32 1190
4.34 1264
4.36 1177
4.38 1158
4.4 1121
4.42 1140
4.44 1178
4.46 1151
4.48 1100
4.5 1194
4.52 1103
4.54 1143
4.56 1113
4.58 1158
4.6 1144
4.62 1175
4.64 1174
4.66 1104
4.68 1125
4.7 1111
4.72 1087
4.74 1093
4.76 1086
4.78 1084
4.8 1057
4.82 1080
4.84 1054
4.86 1103
4.88 1027
4.9 1077
4.92 1083
4.94 1112
4.96 1065
4.98 1062
5 1047
5.02 1049
5.04 1043
5.06 1059
5.08 1026
5.1 1068
5.12 1049
5.14 1045
5.16 1069
5.18 1082
5.2 1097
5.22 1073
5.24 1053
5.26 1037
5.28 1077
5.3 1061
5.32 1026
5.34 1041
5.36 1035
5.38 1054
5.4 1020
5.42 1063
5.44 1014
5.46 1005
5.48 998
5.5 1053
5.52 1020
5.54 1020
5.56 1036
5.58 1024
5.6 1043
5.62 1044
5.64 1069
5.66 1019
5.68 997
5.7 1063
5.72 1000
5.74 1002
5.76 1011
5.78 1011
5.8 1013
5.82 1030
5.84 1010
5.86 1008
5.88 1034
5.9 940
5.92 981
5.94 965
5.96 975
5.98 968
6 985
6.02 969
6.04 1025
6.06 1025
6.08 950
6.1 1097
6.12 950
6.14 965
6.16 933
6.18 950
6.2 1000
6.22 961
6.24 1019
6.26 980
6.28 979
6.3 1031
6.32 963
6.34 941
6.36 971
6.38 913
6.4 970
6.42 1029
6.44 943
6.46 908
6.48 1015
6.5 948
6.52 958
6.54 955
6.56 980
6.58 969
6.6 937
6.62 941
6.64 985
6.66 927
6.68 943
6.7 936
6.72 935
6.74 1009
6.76 919
6.78 946
6.8 995
6.82 915
6.84 946
6.86 924
6.88 937
6.9 924
6.92 950
6.94 913
6.96 948
6.98 902
7 924
7.02 949
7.04 960
7.06 952
7.08 943
7.1 876
7.12 924
7.14 900
7.16 943
7.18 948
7.2 925
7.22 890
7.24 943
7.26 903
7.28 883
7.3 933
7.32 913
7.34 933
7.36 914
7.38 888
7.4 939
7.42 890
7.44 881
7.46 889
7.48 904
7.5 908
7.52 913
7.54 903
7.56 952
7.58 911
7.6 927
7.62 896
7.64 920
7.66 895
7.68 871
7.7 945
7.72 906
7.74 923
7.76 897
7.78 921
7.8 967
7.82 951
7.84 902
7.86 903
7.88 936
7.9 905
7.92 907
7.94 978
7.96 946
7.98 869
8 859
8.02 916
8.04 866
8.06 946
8.08 910
8.1 898
8.12 931
8.14 911
8.16 931
8.18 934
8.2 865
8.22 915
8.24 952
8.26 909
8.28 898
8.3 893
8.32 912
8.34 895
8.36 896
8.38 905
8.4 908
8.42 877
8.44 926
8.46 944
8.48 884
8.5 878
8.52 924
8.54 910
8.56 888
8.58 915
8.6 907
8.62 900
8.64 868
8.66 917
8.68 880
8.7 904
8.72 920
8.74 941
8.76 888
8.78 876
8.8 913
8.82 869
8.84 934
8.86 911
8.88 943
8.9 899
8.92 872
8.94 931
8.96 913
8.98 935
9 966
9.02 886
9.04 949
9.06 948
9.08 909
9.1 852
9.12 934
9.14 935
9.16 949
9.18 995
9.2 899
9.22 929
9.24 893
9.26 981
9.28 925
9.3 910
9.32 939
9.34 978
9.36 915
9.38 962
9.4 966
9.42 959
9.44 896
9.46 902
9.48 951
9.5 912
9.52 924
9.54 898
9.56 952
9.58 898
9.6 923
9.62 890
9.64 901
9.66 935
9.68 930
9.7 957
9.72 923
9.74 956
9.76 883
9.78 914
9.8 907
9.82 913
9.84 912
9.86 926
9.88 885
9.9 847
9.92 892
9.94 924
9.96 915
9.98 944
10 944
10.02 896
10.04 904
10.06 889
10.08 824
10.1 936
10.12 969
10.14 867
10.16 942
10.18 908
10.2 881
10.22 929
10.24 871
10.26 896
10.28 891
10.3 900
10.32 873
10.34 906
10.36 895
10.38 919
10.4 884
10.42 934
10.44 933
10.46 896
10.48 898
10.5 885
10.52 906
10.54 860
10.56 884
10.58 927
10.6 859
10.62 930
10.64 893
10.66 915
10.68 945
10.7 902
10.72 878
10.74 953
10.76 862
10.78 914
10.8 926
10.82 912
10.84 898
10.86 880
10.88 918
10.9 894
10.92 866
10.94 877
10.96 854
10.98 919
11 855
11.02 906
11.04 856
11.06 886
11.08 884
11.1 854
11.12 838
11.14 909
11.16 916
11.18 914
11.2 905
11.22 846
11.24 903
11.26 953
11.28 943
11.3 936
11.32 829
11.34 882
11.36 880
11.38 865
11.4 842
11.42 915
11.44 903
11.46 876
11.48 903
11.5 933
11.52 932
11.54 932
11.56 896
11.58 880
11.6 846
11.62 873
11.64 892
11.66 893
11.68 917
11.7 906
11.72 911
11.74 908
11.76 907
11.78 881
11.8 899
11.82 885
11.84 858
11.86 880
11.88 898
11.9 935
11.92 947
11.94 893
11.96 933
11.98 896
12 947
12.02 946
12.04 918
12.06 965
12.08 931
12.1 902
12.12 957
12.14 908
12.16 850
12.18 973
12.2 935
12.22 914
12.24 895
12.26 946
12.28 916
12.3 933
12.32 933
12.34 920
12.36 923
12.38 984
12.4 895
12.42 959
12.44 866
12.46 930
12.48 919
12.5 899
12.52 943
12.54 957
12.56 930
12.58 924
12.6 907
12.62 968
12.64 918
12.66 937
12.68 908
12.7 970
12.72 927
12.74 974
12.76 930
12.78 907
12.8 893
12.82 1042
12.84 948
12.86 995
12.88 972
12.9 969
12.92 964
12.94 1009
12.96 977
12.98 997
13 991
13.02 952
13.04 973
13.06 1008
13.08 1036
13.1 1005
13.12 974
13.14 978
13.16 954
13.18 1016
13.2 1045
13.22 985
13.24 1026
13.26 1042
13.28 1028
13.3 993
13.32 1006
13.34 995
13.36 995
13.38 1008
13.4 992
13.42 1000
13.44 995
13.46 1009
13.48 1015
13.5 968
13.52 974
13.54 988
13.56 1056
13.58 1012
13.6 1012
13.62 1021
13.64 1038
13.66 999
13.68 1008
13.7 997
13.72 997
13.74 1013
13.76 1026
13.78 1063
13.8 1083
13.82 1078
13.84 1001
13.86 992
13.88 1044
13.9 1060
13.92 992
13.94 1096
13.96 1108
13.98 1038
14 1000
14.02 1058
14.04 1092
14.06 1098
14.08 1048
14.1 1070
14.12 1093
14.14 1071
14.16 1048
14.18 1126
14.2 1088
14.22 1085
14.24 1094
14.26 1120
14.28 1079
14.3 1048
14.32 1060
14.34 1119
14.36 1105
14.38 1069
14.4 1034
14.42 1079
14.44 1054
14.46 1124
14.48 1057
14.5 1104
14.52 1117
14.54 1135
14.56 1092
14.58 1117
14.6 1086
14.62 1078
14.64 1098
14.66 1160
14.68 1141
14.7 1115
14.72 1088
14.74 1132
14.76 1170
14.78 1166
14.8 1183
14.82 1101
14.84 1144
14.86 1178
14.88 1200
14.9 1176
14.92 1160
14.94 1136
14.96 1195
14.98 1151
15 1169
15.02 1185
15.04 1140
15.06 1169
15.08 1099
15.1 1161
15.12 1151
15.14 1177
15.16 1199
15.18 1188
15.2 1213
15.22 1141
15.24 1198
15.26 1228
15.28 1143
15.3 1213
15.32 1225
15.34 1257
15.36 1247
15.38 1265
15.4 1240
15.42 1320
15.44 1317
15.46 1189
15.48 1274
15.5 1210
15.52 1288
15.54 1231
15.56 1242
15.58 1287
15.6 1230
15.62 1268
15.64 1260
15.66 1236
15.68 1273
15.7 1301
15.72 1273
15.74 1303
15.76 1210
15.78 1277
15.8 1284
15.82 1265
15.84 1268
15.86 1349
15.88 1301
15.9 1333
15.92 1405
15.94 1326
15.96 1324
15.98 1346
16 1363
16.02 1355
16.04 1375
16.06 1366
16.08 1284
16.1 1290
16.12 1376
16.14 1310
16.16 1433
16.18 1370
16.2 1366
16.22 1372
16.24 1396
16.26 1358
16.28 1381
16.3 1396
16.32 1432
16.34 1442
16.36 1412
16.38 1476
16.4 1406
16.42 1411
16.44 1443
16.46 1418
16.48 1429
16.5 1454
16.52 1456
16.54 1429
16.56 1478
16.58 1523
16.6 1494
16.62 1580
16.64 1488
16.66 1537
16.68 1505
16.7 1605
16.72 1627
16.74 1702
16.76 1601
16.78 1721
16.8 1763
16.82 1862
16.84 1965
16.86 2102
16.88 2216
16.9 2509
16.92 2663
16.94 3059
16.96 3306
16.98 3482
17 3769
17.02 3746
17.04 3595
17.06 3357
17.08 2725
17.1 2245
17.12 2075
17.14 1749
17.16 1697
17.18 1599
17.2 1674
17.22 1658
17.24 1604
17.26 1663
17.28 1686
17.3 1566
17.32 1618
17.34 1625
17.36 1591
17.38 1655
17.4 1601
17.42 1631
17.44 1593
17.46 1625
17.48 1700
17.5 1601
17.52 1621
17.54 1645
17.56 1662
17.58 1622
17.6 1785
17.62 1674
17.64 1720
17.66 1719
17.68 1748
17.7 1773
17.72 1617
17.74 1686
17.76 1632
17.78 1701
17.8 1754
17.82 1756
17.84 1697
17.86 1695
17.88 1672
17.9 1685
17.92 1763
17.94 1751
17.96 1675
17.98 1733
18 1718
18.02 1806
18.04 1762
18.06 1786
18.08 1701
18.1 1758
18.12 1799
18.14 1804
18.16 1810
18.18 1728
18.2 1738
18.22 1844
18.24 1847
18.26 1852
18.28 1856
18.3 1849
18.32 1874
18.34 1848
18.36 1949
18.38 1904
18.4 1817
18.42 1916
18.44 1910
18.46 1914
18.48 1848
18.5 1875
18.52 1913
18.54 1904
18.56 1899
18.58 1852
18.6 1899
18.62 1919
18.64 1961
18.66 2029
18.68 1937
18.7 1908
18.72 1907
18.74 1886
18.76 1918
18.78 1952
18.8 2084
18.82 1938
18.84 1871
18.86 1980
18.88 1962
18.9 1971
18.92 1909
18.94 1974
18.96 2066
18.98 2029
19 1989
19.02 1966
19.04 1913
19.06 1998
19.08 2044
19.1 2005
19.12 2030
19.14 2071
19.16 2016
19.18 2047
19.2 2084
19.22 2109
19.24 2057
19.26 1986
19.28 2106
19.3 2099
19.32 2044
19.34 2031
19.36 2042
19.38 2059
19.4 2051
19.42 2061
19.44 2107
19.46 2117
19.48 2079
19.5 2092
19.52 2097
19.54 2144
19.56 2111
19.58 2100
19.6 2169
19.62 2197
19.64 2167
19.66 2138
19.68 2141
19.7 2062
19.72 2171
19.74 2220
19.76 2059
19.78 2171
19.8 2105
19.82 2107
19.84 2169
19.86 2127
19.88 2134
19.9 2154
19.92 2243
19.94 2184
19.96 2198
19.98 2119
20 2123
20.02 2209
20.04 2182
20.06 2252
20.08 2183
20.1 2250
20.12 2329
20.14 2232
20.16 2265
20.18 2227
20.2 2290
20.22 2271
20.24 2278
20.26 2282
20.28 2194
20.3 2244
20.32 2270
20.34 2254
20.36 2268
20.38 2263
20.4 2354
20.42 2361
20.44 2239
20.46 2314
20.48 2257
20.5 2309
20.52 2261
20.54 2270
20.56 2246
20.58 2349
20.6 2240
20.62 2344
20.64 2307
20.66 2218
20.68 2376
20.7 2316
20.72 2285
20.74 2267
20.76 2271
20.78 2441
20.8 2358
20.82 2317
20.84 2303
20.86 2331
20.88 2229
20.9 2291
20.92 2295
20.94 2345
20.96 2280
20.98 2384
21 2404
21.02 2388
21.04 2330
21.06 2316
21.08 2328
21.1 2318
21.12 2395
21.14 2371
21.16 2293
21.18 2350
21.2 2300
21.22 2252
21.24 2313
21.26 2330
21.28 2295
21.3 2296
21.32 2320
21.34 2386
21.36 2371
21.38 2354
21.4 2382
21.42 2337
21.44 2324
21.46 2288
21.48 2402
21.5 2292
21.52 2267
21.54 2279
21.56 2332
21.58 2334
21.6 2353
21.62 2390
21.64 2380
21.66 2398
21.68 2349
21.7 2336
21.72 2297
21.74 2415
21.76 2345
21.78 2268
21.8 2374
21.82 2348
21.84 2298
21.86 2344
21.88 2348
21.9 2362
21.92 2245
21.94 2324
21.96 2404
21.98 2353
22 2306
22.02 2252
22.04 2386
22.06 2419
22.08 2407
22.1 2352
22.12 2305
22.14 2339
22.16 2298
22.18 2313
22.2 2319
22.22 2377
22.24 2361
22.26 2366
22.28 2269
22.3 2311
22.32 2394
22.34 2274
22.36 2348
22.38 2286
22.4 2324
22.42 2314
22.44 2339
22.46 2296
22.48 2253
22.5 2325
22.52 2335
22.54 2288
22.56 2242
22.58 2306
22.6 2325
22.62 2325
22.64 2283
22.66 2287
22.68 2319
22.7 2327
22.72 2257
22.74 2390
22.76 2307
22.78 2308
22.8 2368
22.82 2302
22.84 2456
22.86 2325
22.88 2284
22.9 2282
22.92 2271
22.94 2276
22.96 2278
22.98 2274
23 2277
23.02 2279
23.04 2219
23.06 2301
23.08 2220
23.1 2251
23.12 2310
23.14 2310
23.16 2349
23.18 2238
23.2 2204
23.22 2290
23.24 2180
23.26 2265
23.28 2304
23.3 2289
23.32 2238
23.34 2214
23.36 2318
23.38 2316
23.4 2271
23.42 2324
23.44 2158
23.46 2233
23.48 2290
23.5 2358
23.52 2236
23.54 2217
23.56 2304
23.58 2260
23.6 2276
23.62 2206
23.64 2167
23.66 2156
23.68 2197
23.7 2236
23.72 2189
23.74 2109
23.76 2204
23.78 2152
23.8 2220
23.82 2270
23.84 2159
23.86 2129
23.88 2181
23.9 2250
23.92 2230
23.94 2141
23.96 2114
23.98 2172
24 2131
24.02 2138
24.04 2160
24.06 2125
24.08 2140
24.1 2188
24.12 2190
24.14 2176
24.16 2135
24.18 2176
24.2 2174
24.22 2218
24.24 2219
24.26 2266
24.28 2261
24.3 2260
24.32 2288
24.34 2226
24.36 2201
24.38 2220
24.4 2416
24.42 2373
24.44 2450
24.46 2476
24.48 2445
24.5 2507
24.52 2612
24.54 2688
24.56 2641
24.58 2688
24.6 2600
24.62 2524
24.64 2493
24.66 2360
24.68 2355
24.7 2227
24.72 2214
24.74 2221
24.76 2179
24.78 2198
24.8 2171
24.82 2108
24.84 2124
24.86 2080
24.88 2116
24.9 2066
24.92 2067
24.94 2032
24.96 2147
24.98 2107
25 2066
25.02 2109
25.04 2232
25.06 2195
25.08 2213
25.1 2192
25.12 2193
25.14 2311
25.16 2450
25.18 2417
25.2 2712
25.22 2760
25.24 2881
25.26 3056
25.28 3141
25.3 3224
25.32 3300
25.34 3174
25.36 3092
25.38 2815
25.4 2638
25.42 2530
25.44 2314
25.46 2209
25.48 2189
25.5 2135
25.52 2005
25.54 2130
25.56 2050
25.58 1927
25.6 1929
25.62 1997
25.64 2030
25.66 1981
25.68 1970
25.7 1927
25.72 1999
25.74 1941
25.76 1978
25.78 1949
25.8 1998
25.82 1929
25.84 2007
25.86 1923
25.88 1929
25.9 1847
25.92 1821
25.94 1823
25.96 1900
25.98 1918
26 1914
26.02 1960
26.04 1931
26.06 1860
26.08 1839
26.1 1810
26.12 1842
26.14 1810
26.16 1833
26.18 1876
26.2 1814
26.22 1773
26.24 1809
26.26 1798
26.28 1850
26.3 1855
26.32 1871
26.34 1808
26.36 1831
26.38 1846
26.4 1831
26.42 1821
26.44 1766
26.46 1809
26.48 1828
26.5 1844
26.52 1843
26.54 1802
26.56 1881
26.58 1887
26.6 1881
26.62 1926
26.64 1982
26.66 1999
26.68 2078
26.7 2101
26.72 2213
26.74 2199
26.76 2240
26.78 2316
26.8 2337
26.82 2345
26.84 2467
26.86 2518
26.88 2543
26.9 2627
26.92 2787
26.94 2672
26.96 2697
26.98 2362
27 2299
27.02 2195
27.04 2080
27.06 2007
27.08 1950
27.1 1882
27.12 1876
27.14 1839
27.16 1811
27.18 1802
27.2 1737
27.22 1824
27.24 1698
27.26 1736
27.28 1782
27.3 1711
27.32 1717
27.34 1669
27.36 1794
27.38 1686
27.4 1730
27.42 1651
27.44 1647
27.46 1733
27.48 1696
27.5 1749
27.52 1705
27.54 1670
27.56 1659
27.58 1650
27.6 1677
27.62 1650
27.64 1666
27.66 1655
27.68 1659
27.7 1684
27.72 1647
27.74 1669
27.76 1676
27.78 1662
27.8 1639
27.82 1724
27.84 1652
27.86 1666
27.88 1616
27.9 1569
27.92 1640
27.94 1612
27.96 1622
27.98 1640
28 1635
28.02 1589
28.04 1581
28.06 1615
28.08 1647
28.1 1636
28.12 1643
28.14 1642
28.16 1675
28.18 1631
28.2 1664
28.22 1653
28.24 1608
28.26 1588
28.28 1588
28.3 1539
28.32 1508
28.34 1592
28.36 1628
28.38 1552
28.4 1620
28.42 1566
28.44 1591
28.46 1615
28.48 1620
28.5 1534
28.52 1518
28.54 1605
28.56 1560
28.58 1589
28.6 1643
28.62 1635
28.64 1626
28.66 1554
28.68 1611
28.7 1578
28.72 1642
28.74 1549
28.76 1528
28.78 1566
28.8 1503
28.82 1544
28.84 1526
28.86 1593
28.88 1543
28.9 1542
28.92 1559
28.94 1557
28.96 1570
28.98 1578
29 1575
29.02 1611
29.04 1619
29.06 1589
29.08 1510
29.1 1635
29.12 1574
29.14 1620
29.16 1655
29.18 1700
29.2 1682
29.22 1674
29.24 1671
29.26 1645
29.28 1670
29.3 1655
29.32 1546
29.34 1566
29.36 1604
29.38 1491
29.4 1563
29.42 1503
29.44 1485
29.46 1547
29.48 1523
29.5 1467
29.52 1471
29.54 1459
29.56 1465
29.58 1453
29.6 1474
29.62 1434
29.64 1444
29.66 1479
29.68 1446
29.7 1487
29.72 1433
29.74 1387
29.76 1391
29.78 1390
29.8 1469
29.82 1428
29.84 1484
29.86 1380
29.88 1426
29.9 1457
29.92 1389
29.94 1376
29.96 1421
29.98 1371
30 1439