File: xrd-UiO-67/pxrddata/40-6.ASC
3 2162
3.02 1892
3.04 1784
3.06 1688
3.08 1528
3.1 1480
3.12 1513
3.14 1411
3.16 1419
3.18 1374
3.2 1330
3.22 1328
3.24 1317
3.26 1368
3.28 1304
3.3 1306
3.32 1255
3.34 1256
3.36 1233
3.38 1229
3.4 1250
3.42 1325
3.44 1219
3.46 1214
3.48 1217
3.5 1210
3.52 1142
3.54 1096
3.56 1144
3.58 1199
3.6 1182
3.62 1080
3.64 1148
3.66 1119
3.68 1098
3.7 1122
3.72 1076
3.74 1075
3.76 1114
3.78 1150
3.8 1070
3.82 1060
3.84 1110
3.86 1045
3.88 1037
3.9 1022
3.92 1094
3.94 1037
3.96 1029
3.98 1043
4 1035
4.02 1041
4.04 973
4.06 1012
4.08 1022
4.1 956
4.12 985
4.14 1001
4.16 1027
4.18 992
4.2 984
4.22 984
4.24 936
4.26 956
4.28 902
4.3 956
4.32 975
4.34 959
4.36 996
4.38 994
4.4 973
4.42 918
4.44 958
4.46 984
4.48 931
4.5 965
4.52 925
4.54 923
4.56 924
4.58 962
4.6 951
4.62 998
4.64 973
4.66 992
4.68 934
4.7 988
4.72 976
4.74 916
4.76 950
4.78 966
4.8 949
4.82 983
4.84 958
4.86 906
4.88 1001
4.9 929
4.92 939
4.94 1019
4.96 948
4.98 996
5 998
5.02 967
5.04 999
5.06 1046
5.08 1023
5.1 1041
5.12 1074
5.14 1098
5.16 1103
5.18 1090
5.2 1088
5.22 1125
5.24 1134
5.26 1222
5.28 1213
5.3 1247
5.32 1355
5.34 1309
5.36 1375
5.38 1444
5.4 1524
5.42 1511
5.44 1702
5.46 1734
5.48 1841
5.5 1999
5.52 2185
5.54 2265
5.56 2281
5.58 2105
5.6 1825
5.62 1590
5.64 1409
5.66 1356
5.68 1236
5.7 1214
5.72 1182
5.74 1106
5.76 1058
5.78 1083
5.8 963
5.82 994
5.84 953
5.86 954
5.88 954
5.9 949
5.92 940
5.94 911
5.96 927
5.98 875
6 872
6.02 889
6.04 817
6.06 798
6.08 839
6.1 829
6.12 802
6.14 826
6.16 781
6.18 839
6.2 841
6.22 796
6.24 802
6.26 788
6.28 784
6.3 731
6.32 805
6.34 822
6.36 739
6.38 807
6.4 795
6.42 799
6.44 763
6.46 766
6.48 752
6.5 771
6.52 788
6.54 751
6.56 730
6.58 753
6.6 713
6.62 712
6.64 789
6.66 730
6.68 717
6.7 773
6.72 793
6.74 820
6.76 748
6.78 766
6.8 708
6.82 692
6.84 730
6.86 785
6.88 712
6.9 762
6.92 784
6.94 758
6.96 694
6.98 712
7 714
7.02 707
7.04 754
7.06 722
7.08 726
7.1 768
7.12 766
7.14 754
7.16 713
7.18 711
7.2 726
7.22 724
7.24 743
7.26 737
7.28 747
7.3 718
7.32 717
7.34 690
7.36 717
7.38 759
7.4 767
7.42 759
7.44 751
7.46 716
7.48 710
7.5 706
7.52 675
7.54 673
7.56 694
7.58 706
7.6 722
7.62 769
7.64 713
7.66 803
7.68 712
7.7 714
7.72 776
7.74 747
7.76 699
7.78 696
7.8 709
7.82 731
7.84 808
7.86 718
7.88 744
7.9 724
7.92 730
7.94 751
7.96 660
7.98 769
8 713
8.02 746
8.04 712
8.06 723
8.08 693
8.1 744
8.12 726
8.14 719
8.16 743
8.18 769
8.2 716
8.22 694
8.24 734
8.26 757
8.28 742
8.3 712
8.32 748
8.34 754
8.36 732
8.38 702
8.4 794
8.42 753
8.44 691
8.46 714
8.48 736
8.5 752
8.52 789
8.54 715
8.56 718
8.58 780
8.6 774
8.62 737
8.64 756
8.66 739
8.68 740
8.7 719
8.72 741
8.74 747
8.76 747
8.78 760
8.8 747
8.82 773
8.84 754
8.86 770
8.88 730
8.9 775
8.92 757
8.94 801
8.96 762
8.98 807
9 792
9.02 824
9.04 764
9.06 813
9.08 793
9.1 780
9.12 800
9.14 860
9.16 849
9.18 854
9.2 840
9.22 848
9.24 901
9.26 928
9.28 900
9.3 934
9.32 1058
9.34 1144
9.36 1116
9.38 1207
9.4 1222
9.42 1201
9.44 1293
9.46 1326
9.48 1263
9.5 1116
9.52 989
9.54 936
9.56 885
9.58 852
9.6 883
9.62 831
9.64 778
9.66 821
9.68 829
9.7 843
9.72 818
9.74 759
9.76 792
9.78 751
9.8 766
9.82 782
9.84 820
9.86 834
9.88 762
9.9 806
9.92 783
9.94 823
9.96 771
9.98 756
10 777
10.02 779
10.04 807
10.06 790
10.08 791
10.1 788
10.12 772
10.14 776
10.16 806
10.18 766
10.2 772
10.22 823
10.24 806
10.26 840
10.28 805
10.3 772
10.32 821
10.34 762
10.36 784
10.38 777
10.4 811
10.42 775
10.44 860
10.46 773
10.48 866
10.5 830
10.52 838
10.54 762
10.56 825
10.58 836
10.6 840
10.62 834
10.64 845
10.66 857
10.68 910
10.7 841
10.72 926
10.74 898
10.76 947
10.78 1050
10.8 1064
10.82 1155
10.84 1141
10.86 1102
10.88 1180
10.9 1108
10.92 1134
10.94 1127
10.96 1032
10.98 982
11 951
11.02 903
11.04 938
11.06 852
11.08 909
11.1 917
11.12 859
11.14 837
11.16 833
11.18 829
11.2 870
11.22 814
11.24 847
11.26 842
11.28 847
11.3 820
11.32 805
11.34 797
11.36 831
11.38 802
11.4 828
11.42 815
11.44 807
11.46 766
11.48 775
11.5 779
11.52 824
11.54 809
11.56 836
11.58 831
11.6 897
11.62 844
11.64 885
11.66 796
11.68 863
11.7 785
11.72 796
11.74 835
11.76 863
11.78 818
11.8 854
11.82 867
11.84 800
11.86 847
11.88 819
11.9 864
11.92 831
11.94 859
11.96 839
11.98 798
12 849
12.02 881
12.04 891
12.06 853
12.08 850
12.1 844
12.12 872
12.14 835
12.16 913
12.18 897
12.2 892
12.22 901
12.24 925
12.26 930
12.28 886
12.3 894
12.32 919
12.34 930
12.36 907
12.38 877
12.4 935
12.42 896
12.44 876
12.46 869
12.48 876
12.5 889
12.52 882
12.54 886
12.56 824
12.58 922
12.6 876
12.62 895
12.64 856
12.66 901
12.68 899
12.7 934
12.72 854
12.74 857
12.76 846
12.78 927
12.8 897
12.82 873
12.84 891
12.86 899
12.88 893
12.9 875
12.92 856
12.94 870
12.96 955
12.98 929
13 967
13.02 895
13.04 880
13.06 931
13.08 867
13.1 938
13.12 913
13.14 967
13.16 947
13.18 924
13.2 902
13.22 975
13.24 913
13.26 953
13.28 943
13.3 935
13.32 953
13.34 927
13.36 962
13.38 951
13.4 985
13.42 1038
13.44 952
13.46 890
13.48 919
13.5 912
13.52 976
13.54 912
13.56 949
13.58 980
13.6 951
13.62 982
13.64 987
13.66 958
13.68 1003
13.7 912
13.72 956
13.74 966
13.76 982
13.78 982
13.8 939
13.82 912
13.84 960
13.86 927
13.88 969
13.9 951
13.92 1030
13.94 1003
13.96 987
13.98 986
14 941
14.02 998
14.04 1030
14.06 957
14.08 1001
14.1 992
14.12 1003
14.14 978
14.16 995
14.18 988
14.2 973
14.22 995
14.24 1055
14.26 959
14.28 983
14.3 1049
14.32 1120
14.34 1046
14.36 1105
14.38 970
14.4 1041
14.42 990
14.44 980
14.46 1008
14.48 1063
14.5 1027
14.52 1007
14.54 1050
14.56 1089
14.58 1055
14.6 1017
14.62 1067
14.64 1015
14.66 1064
14.68 1042
14.7 1012
14.72 999
14.74 1056
14.76 1003
14.78 1066
14.8 1055
14.82 1034
14.84 1047
14.86 1024
14.88 1082
14.9 1044
14.92 1011
14.94 1047
14.96 1071
14.98 1036
15 1021
15.02 1060
15.04 1065
15.06 1106
15.08 1090
15.1 1023
15.12 1086
15.14 1050
15.16 1080
15.18 1078
15.2 1078
15.22 1126
15.24 1058
15.26 1116
15.28 1059
15.3 1092
15.32 1078
15.34 1060
15.36 1089
15.38 1058
15.4 1141
15.42 1134
15.44 1146
15.46 1146
15.48 1098
15.5 1132
15.52 1167
15.54 1114
15.56 1087
15.58 1157
15.6 1115
15.62 1153
15.64 1111
15.66 1135
15.68 1095
15.7 1110
15.72 1165
15.74 1195
15.76 1096
15.78 1125
15.8 1127
15.82 1184
15.84 1128
15.86 1130
15.88 1188
15.9 1213
15.92 1130
15.94 1159
15.96 1202
15.98 1190
16 1183
16.02 1220
16.04 1159
16.06 1183
16.08 1238
16.1 1180
16.12 1163
16.14 1169
16.16 1205
16.18 1226
16.2 1205
16.22 1258
16.24 1232
16.26 1240
16.28 1308
16.3 1213
16.32 1222
16.34 1244
16.36 1188
16.38 1213
16.4 1264
16.42 1311
16.44 1262
16.46 1325
16.48 1285
16.5 1223
16.52 1244
16.54 1299
16.56 1288
16.58 1325
16.6 1363
16.62 1298
16.64 1379
16.66 1359
16.68 1399
16.7 1309
16.72 1305
16.74 1372
16.76 1399
16.78 1394
16.8 1392
16.82 1501
16.84 1464
16.86 1511
16.88 1606
16.9 1690
16.92 1737
16.94 1809
16.96 1981
16.98 1992
17 2252
17.02 2395
17.04 2560
17.06 2483
17.08 2479
17.1 2510
17.12 2345
17.14 2182
17.16 1966
17.18 1813
17.2 1599
17.22 1538
17.24 1516
17.26 1493
17.28 1557
17.3 1531
17.32 1548
17.34 1444
17.36 1535
17.38 1566
17.4 1445
17.42 1497
17.44 1498
17.46 1560
17.48 1564
17.5 1509
17.52 1384
17.54 1466
17.56 1593
17.58 1444
17.6 1485
17.62 1531
17.64 1515
17.66 1486
17.68 1453
17.7 1470
17.72 1518
17.74 1516
17.76 1515
17.78 1534
17.8 1536
17.82 1533
17.84 1570
17.86 1578
17.88 1564
17.9 1546
17.92 1504
17.94 1581
17.96 1628
17.98 1581
18 1580
18.02 1526
18.04 1589
18.06 1597
18.08 1615
18.1 1673
18.12 1609
18.14 1631
18.16 1638
18.18 1640
18.2 1717
18.22 1635
18.24 1744
18.26 1637
18.28 1657
18.3 1754
18.32 1622
18.34 1597
18.36 1645
18.38 1698
18.4 1721
18.42 1738
18.44 1695
18.46 1782
18.48 1738
18.5 1652
18.52 1693
18.54 1753
18.56 1765
18.58 1704
18.6 1723
18.62 1803
18.64 1730
18.66 1780
18.68 1808
18.7 1813
18.72 1749
18.74 1842
18.76 1817
18.78 1943
18.8 1860
18.82 1852
18.84 1813
18.86 1755
18.88 1855
18.9 1785
18.92 1853
18.94 1826
18.96 1847
18.98 1829
19 1890
19.02 1877
19.04 1880
19.06 1851
19.08 1946
19.1 1844
19.12 1850
19.14 1916
19.16 1902
19.18 1929
19.2 1908
19.22 1923
19.24 1921
19.26 1894
19.28 1912
19.3 1916
19.32 1964
19.34 1993
19.36 1950
19.38 2015
19.4 2037
19.42 1996
19.44 2046
19.46 2073
19.48 2103
19.5 2132
19.52 2137
19.54 2093
19.56 2114
19.58 2156
19.6 2206
19.62 2217
19.64 2164
19.66 2050
19.68 2099
19.7 2048
19.72 2036
19.74 2059
19.76 2155
19.78 2098
19.8 2086
19.82 2100
19.84 2047
19.86 2073
19.88 2117
19.9 2100
19.92 2085
19.94 2147
19.96 2094
19.98 2192
20 2218