File: xrd-UiO-67/pxrddata/41-2.ASC
3 2064
3.02 2006
3.04 1974
3.06 1801
3.08 1842
3.1 1683
3.12 1471
3.14 1354
3.16 1367
3.18 1421
3.2 1359
3.22 1326
3.24 1357
3.26 1334
3.28 1329
3.3 1364
3.32 1292
3.34 1287
3.36 1297
3.38 1258
3.4 1260
3.42 1244
3.44 1269
3.46 1313
3.48 1225
3.5 1290
3.52 1243
3.54 1217
3.56 1248
3.58 1249
3.6 1251
3.62 1226
3.64 1218
3.66 1188
3.68 1238
3.7 1204
3.72 1184
3.74 1177
3.76 1223
3.78 1178
3.8 1145
3.82 1177
3.84 1173
3.86 1132
3.88 1209
3.9 1135
3.92 1087
3.94 1152
3.96 1160
3.98 1070
4 1138
4.02 1096
4.04 1108
4.06 1094
4.08 1071
4.1 1094
4.12 1125
4.14 1027
4.16 1103
4.18 1064
4.2 1067
4.22 1016
4.24 1014
4.26 1081
4.28 1055
4.3 1093
4.32 1102
4.34 1019
4.36 1059
4.38 1010
4.4 1138
4.42 1069
4.44 1039
4.46 1059
4.48 1033
4.5 1011
4.52 1054
4.54 1006
4.56 984
4.58 1017
4.6 951
4.62 1022
4.64 971
4.66 946
4.68 988
4.7 936
4.72 948
4.74 960
4.76 943
4.78 992
4.8 987
4.82 1006
4.84 929
4.86 976
4.88 947
4.9 955
4.92 942
4.94 995
4.96 1017
4.98 976
5 970
5.02 935
5.04 975
5.06 943
5.08 968
5.1 969
5.12 925
5.14 961
5.16 957
5.18 990
5.2 993
5.22 1027
5.24 1025
5.26 962
5.28 970
5.3 890
5.32 897
5.34 938
5.36 868
5.38 906
5.4 879
5.42 855
5.44 900
5.46 914
5.48 961
5.5 882
5.52 901
5.54 909
5.56 876
5.58 889
5.6 899
5.62 840
5.64 885
5.66 870
5.68 847
5.7 806
5.72 920
5.74 834
5.76 862
5.78 849
5.8 856
5.82 856
5.84 845
5.86 928
5.88 854
5.9 819
5.92 898
5.94 860
5.96 846
5.98 858
6 877
6.02 803
6.04 866
6.06 836
6.08 872
6.1 848
6.12 825
6.14 848
6.16 877
6.18 820
6.2 845
6.22 848
6.24 828
6.26 819
6.28 873
6.3 844
6.32 805
6.34 807
6.36 827
6.38 829
6.4 842
6.42 819
6.44 802
6.46 772
6.48 797
6.5 843
6.52 811
6.54 824
6.56 799
6.58 829
6.6 859
6.62 774
6.64 774
6.66 801
6.68 783
6.7 786
6.72 776
6.74 809
6.76 811
6.78 777
6.8 830
6.82 830
6.84 838
6.86 831
6.88 848
6.9 787
6.92 814
6.94 815
6.96 805
6.98 770
7 788
7.02 814
7.04 731
7.06 797
7.08 813
7.1 775
7.12 807
7.14 777
7.16 802
7.18 787
7.2 775
7.22 776
7.24 810
7.26 772
7.28 755
7.3 758
7.32 741
7.34 760
7.36 746
7.38 683
7.4 730
7.42 760
7.44 737
7.46 722
7.48 746
7.5 766
7.52 709
7.54 716
7.56 745
7.58 769
7.6 771
7.62 750
7.64 736
7.66 749
7.68 742
7.7 773
7.72 764
7.74 721
7.76 722
7.78 747
7.8 743
7.82 742
7.84 751
7.86 703
7.88 737
7.9 703
7.92 769
7.94 752
7.96 699
7.98 757
8 731
8.02 753
8.04 742
8.06 750
8.08 737
8.1 699
8.12 713
8.14 723
8.16 714
8.18 679
8.2 686
8.22 691
8.24 678
8.26 692
8.28 681
8.3 675
8.32 688
8.34 673
8.36 690
8.38 740
8.4 697
8.42 655
8.44 710
8.46 670
8.48 683
8.5 668
8.52 704
8.54 704
8.56 694
8.58 660
8.6 712
8.62 678
8.64 690
8.66 637
8.68 688
8.7 657
8.72 681
8.74 684
8.76 692
8.78 664
8.8 646
8.82 687
8.84 674
8.86 647
8.88 628
8.9 679
8.92 694
8.94 624
8.96 648
8.98 658
9 677
9.02 667
9.04 660
9.06 676
9.08 637
9.1 628
9.12 662
9.14 636
9.16 607
9.18 633
9.2 639
9.22 645
9.24 623
9.26 604
9.28 617
9.3 590
9.32 603
9.34 656
9.36 603
9.38 602
9.4 604
9.42 597
9.44 585
9.46 598
9.48 628
9.5 608
9.52 644
9.54 566
9.56 602
9.58 590
9.6 614
9.62 613
9.64 563
9.66 642
9.68 575
9.7 623
9.72 639
9.74 560
9.76 610
9.78 630
9.8 649
9.82 594
9.84 563
9.86 594
9.88 603
9.9 616
9.92 614
9.94 612
9.96 605
9.98 596
10 608
10.02 605
10.04 594
10.06 594
10.08 607
10.1 600
10.12 578
10.14 578
10.16 606
10.18 578
10.2 549
10.22 578
10.24 595
10.26 569
10.28 606
10.3 597
10.32 588
10.34 574
10.36 584
10.38 599
10.4 572
10.42 590
10.44 583
10.46 555
10.48 613
10.5 561
10.52 586
10.54 579
10.56 594
10.58 558
10.6 547
10.62 586
10.64 560
10.66 555
10.68 520
10.7 589
10.72 556
10.74 578
10.76 549
10.78 538
10.8 560
10.82 565
10.84 542
10.86 577
10.88 569
10.9 581
10.92 557
10.94 565
10.96 563
10.98 534
11 543
11.02 586
11.04 562
11.06 510
11.08 575
11.1 537
11.12 553
11.14 553
11.16 541
11.18 540
11.2 581
11.22 558
11.24 514
11.26 560
11.28 559
11.3 533
11.32 554
11.34 522
11.36 560
11.38 530
11.4 534
11.42 551
11.44 533
11.46 511
11.48 514
11.5 534
11.52 540
11.54 536
11.56 529
11.58 550
11.6 495
11.62 558
11.64 527
11.66 515
11.68 499
11.7 560
11.72 499
11.74 533
11.76 502
11.78 542
11.8 555
11.82 544
11.84 552
11.86 465
11.88 515
11.9 540
11.92 498
11.94 516
11.96 514
11.98 530
12 556
12.02 515
12.04 531
12.06 476
12.08 489
12.1 515
12.12 487
12.14 508
12.16 523
12.18 553
12.2 510
12.22 533
12.24 555
12.26 537
12.28 520
12.3 445
12.32 526
12.34 555
12.36 519
12.38 533
12.4 522
12.42 515
12.44 512
12.46 501
12.48 526
12.5 530
12.52 524
12.54 519
12.56 509
12.58 527
12.6 513
12.62 537
12.64 492
12.66 476
12.68 523
12.7 493
12.72 508
12.74 517
12.76 522
12.78 536
12.8 509
12.82 504
12.84 528
12.86 514
12.88 521
12.9 507
12.92 506
12.94 487
12.96 519
12.98 493
13 503
13.02 511
13.04 510
13.06 495
13.08 510
13.1 491
13.12 496
13.14 484
13.16 488
13.18 502
13.2 450
13.22 498
13.24 493
13.26 509
13.28 514
13.3 505
13.32 492
13.34 497
13.36 451
13.38 489
13.4 462
13.42 509
13.44 495
13.46 530
13.48 500
13.5 528
13.52 476
13.54 490
13.56 521
13.58 474
13.6 494
13.62 518
13.64 492
13.66 490
13.68 449
13.7 506
13.72 482
13.74 490
13.76 512
13.78 485
13.8 512
13.82 474
13.84 491
13.86 498
13.88 520
13.9 485
13.92 489
13.94 485
13.96 502
13.98 495
14 489
14.02 496
14.04 517
14.06 501
14.08 484
14.1 511
14.12 491
14.14 489
14.16 490
14.18 502
14.2 496
14.22 496
14.24 478
14.26 503
14.28 527
14.3 517
14.32 439
14.34 497
14.36 517
14.38 504
14.4 500
14.42 471
14.44 496
14.46 506
14.48 490
14.5 467
14.52 482
14.54 492
14.56 465
14.58 482
14.6 483
14.62 507
14.64 469
14.66 503
14.68 498
14.7 490
14.72 503
14.74 513
14.76 507
14.78 513
14.8 507
14.82 465
14.84 504
14.86 487
14.88 509
14.9 467
14.92 501
14.94 479
14.96 480
14.98 496
15 519
15.02 491
15.04 488
15.06 495
15.08 475
15.1 436
15.12 507
15.14 512
15.16 484
15.18 465
15.2 474
15.22 476
15.24 468
15.26 484
15.28 460
15.3 503
15.32 472
15.34 478
15.36 482
15.38 479
15.4 484
15.42 457
15.44 433
15.46 495
15.48 495
15.5 475
15.52 475
15.54 473
15.56 519
15.58 473
15.6 467
15.62 482
15.64 521
15.66 468
15.68 435
15.7 461
15.72 477
15.74 471
15.76 508
15.78 452
15.8 485
15.82 449
15.84 476
15.86 486
15.88 473
15.9 460
15.92 462
15.94 457
15.96 509
15.98 516
16 478
16.02 464
16.04 539
16.06 499
16.08 511
16.1 446
16.12 498
16.14 499
16.16 471
16.18 507
16.2 488
16.22 437
16.24 451
16.26 502
16.28 468
16.3 453
16.32 491
16.34 494
16.36 475
16.38 499
16.4 482
16.42 467
16.44 490
16.46 460
16.48 437
16.5 441
16.52 487
16.54 446
16.56 460
16.58 504
16.6 438
16.62 494
16.64 478
16.66 487
16.68 492
16.7 463
16.72 513
16.74 447
16.76 487
16.78 505
16.8 480
16.82 489
16.84 468
16.86 434
16.88 503
16.9 479
16.92 470
16.94 507
16.96 510
16.98 501
17 503
17.02 534
17.04 508
17.06 510
17.08 554
17.1 590
17.12 552
17.14 585
17.16 659
17.18 640
17.2 684
17.22 687
17.24 625
17.26 590
17.28 586
17.3 557
17.32 528
17.34 497
17.36 502
17.38 467
17.4 511
17.42 462
17.44 498
17.46 494
17.48 460
17.5 490
17.52 463
17.54 516
17.56 485
17.58 427
17.6 469
17.62 497
17.64 442
17.66 471
17.68 475
17.7 467
17.72 477
17.74 469
17.76 449
17.78 455
17.8 465
17.82 474
17.84 481
17.86 492
17.88 533
17.9 484
17.92 445
17.94 489
17.96 473
17.98 491
18 511
18.02 525
18.04 499
18.06 490
18.08 503
18.1 487
18.12 453
18.14 473
18.16 474
18.18 478
18.2 479
18.22 439
18.24 458
18.26 478
18.28 453
18.3 487
18.32 480
18.34 455
18.36 489
18.38 518
18.4 492
18.42 478
18.44 491
18.46 439
18.48 460
18.5 492
18.52 469
18.54 472
18.56 499
18.58 502
18.6 503
18.62 465
18.64 438
18.66 486
18.68 454
18.7 478
18.72 473
18.74 477
18.76 480
18.78 480
18.8 466
18.82 470
18.84 494
18.86 431
18.88 480
18.9 489
18.92 462
18.94 473
18.96 479
18.98 470
19 456
19.02 505
19.04 449
19.06 473
19.08 470
19.1 463
19.12 459
19.14 478
19.16 520
19.18 480
19.2 489
19.22 489
19.24 491
19.26 486
19.28 483
19.3 476
19.32 475
19.34 467
19.36 493
19.38 449
19.4 470
19.42 495
19.44 524
19.46 497
19.48 473
19.5 490
19.52 504
19.54 473
19.56 489
19.58 476
19.6 485
19.62 487
19.64 471
19.66 498
19.68 489
19.7 475
19.72 454
19.74 458
19.76 444
19.78 479
19.8 499
19.82 508
19.84 468
19.86 497
19.88 487
19.9 491
19.92 473
19.94 508
19.96 493
19.98 524
20 421