File: xrd-UiO-67/pxrddata/41-4.ASC
3 2142
3.02 2136
3.04 2391
3.06 2373
3.08 1780
3.1 1607
3.12 1517
3.14 1545
3.16 1526
3.18 1475
3.2 1461
3.22 1457
3.24 1421
3.26 1463
3.28 1422
3.3 1415
3.32 1434
3.34 1470
3.36 1401
3.38 1453
3.4 1398
3.42 1380
3.44 1385
3.46 1375
3.48 1318
3.5 1337
3.52 1323
3.54 1305
3.56 1382
3.58 1332
3.6 1241
3.62 1408
3.64 1297
3.66 1262
3.68 1284
3.7 1333
3.72 1339
3.74 1308
3.76 1306
3.78 1298
3.8 1271
3.82 1279
3.84 1246
3.86 1322
3.88 1256
3.9 1303
3.92 1255
3.94 1215
3.96 1206
3.98 1216
4 1202
4.02 1240
4.04 1269
4.06 1231
4.08 1228
4.1 1257
4.12 1229
4.14 1173
4.16 1260
4.18 1284
4.2 1208
4.22 1220
4.24 1212
4.26 1245
4.28 1232
4.3 1207
4.32 1175
4.34 1227
4.36 1166
4.38 1191
4.4 1138
4.42 1176
4.44 1122
4.46 1141
4.48 1170
4.5 1130
4.52 1248
4.54 1144
4.56 1149
4.58 1181
4.6 1167
4.62 1144
4.64 1184
4.66 1195
4.68 1169
4.7 1159
4.72 1196
4.74 1154
4.76 1201
4.78 1093
4.8 1189
4.82 1115
4.84 1129
4.86 1211
4.88 1150
4.9 1143
4.92 1140
4.94 1171
4.96 1214
4.98 1114
5 1114
5.02 1103
5.04 1206
5.06 1191
5.08 1080
5.1 1143
5.12 1153
5.14 1099
5.16 1189
5.18 1186
5.2 1123
5.22 1169
5.24 1203
5.26 1153
5.28 1199
5.3 1169
5.32 1166
5.34 1186
5.36 1195
5.38 1247
5.4 1212
5.42 1317
5.44 1331
5.46 1350
5.48 1331
5.5 1344
5.52 1342
5.54 1248
5.56 1199
5.58 1164
5.6 1113
5.62 1129
5.64 1098
5.66 1121
5.68 1125
5.7 1091
5.72 1079
5.74 1095
5.76 1029
5.78 1051
5.8 982
5.82 1028
5.84 1012
5.86 1026
5.88 1020
5.9 1067
5.92 1041
5.94 1023
5.96 1017
5.98 1063
6 1011
6.02 986
6.04 959
6.06 1028
6.08 1024
6.1 1017
6.12 1014
6.14 949
6.16 1003
6.18 1007
6.2 991
6.22 981
6.24 1007
6.26 983
6.28 997
6.3 944
6.32 972
6.34 973
6.36 992
6.38 968
6.4 949
6.42 977
6.44 984
6.46 990
6.48 930
6.5 996
6.52 981
6.54 991
6.56 980
6.58 906
6.6 997
6.62 921
6.64 988
6.66 973
6.68 951
6.7 934
6.72 976
6.74 949
6.76 957
6.78 983
6.8 923
6.82 943
6.84 900
6.86 971
6.88 905
6.9 915
6.92 952
6.94 884
6.96 931
6.98 868
7 911
7.02 909
7.04 896
7.06 856
7.08 865
7.1 812
7.12 907
7.14 866
7.16 907
7.18 855
7.2 905
7.22 897
7.24 891
7.26 849
7.28 861
7.3 847
7.32 860
7.34 877
7.36 806
7.38 838
7.4 865
7.42 842
7.44 861
7.46 906
7.48 828
7.5 828
7.52 809
7.54 828
7.56 855
7.58 801
7.6 855
7.62 842
7.64 875
7.66 838
7.68 835
7.7 793
7.72 904
7.74 878
7.76 824
7.78 874
7.8 882
7.82 794
7.84 835
7.86 843
7.88 888
7.9 929
7.92 832
7.94 899
7.96 908
7.98 914
8 899
8.02 870
8.04 873
8.06 864
8.08 781
8.1 779
8.12 803
8.14 802
8.16 805
8.18 794
8.2 782
8.22 805
8.24 795
8.26 822
8.28 790
8.3 832
8.32 805
8.34 839
8.36 798
8.38 811
8.4 870
8.42 771
8.44 821
8.46 833
8.48 832
8.5 805
8.52 796
8.54 814
8.56 750
8.58 819
8.6 751
8.62 734
8.64 762
8.66 738
8.68 775
8.7 794
8.72 802
8.74 770
8.76 788
8.78 815
8.8 772
8.82 746
8.84 775
8.86 731
8.88 750
8.9 734
8.92 728
8.94 725
8.96 736
8.98 697
9 737
9.02 738
9.04 724
9.06 705
9.08 694
9.1 734
9.12 693
9.14 693
9.16 731
9.18 679
9.2 722
9.22 732
9.24 710
9.26 750
9.28 706
9.3 751
9.32 732
9.34 743
9.36 746
9.38 751
9.4 759
9.42 770
9.44 749
9.46 724
9.48 701
9.5 714
9.52 724
9.54 696
9.56 708
9.58 702
9.6 718
9.62 727
9.64 700
9.66 734
9.68 692
9.7 680
9.72 666
9.74 672
9.76 701
9.78 629
9.8 639
9.82 700
9.84 677
9.86 635
9.88 679
9.9 663
9.92 688
9.94 679
9.96 637
9.98 634
10 667
10.02 680
10.04 653
10.06 610
10.08 635
10.1 640
10.12 662
10.14 652
10.16 632
10.18 650
10.2 611
10.22 620
10.24 650
10.26 663
10.28 678
10.3 659
10.32 698
10.34 629
10.36 656
10.38 669
10.4 605
10.42 642
10.44 651
10.46 634
10.48 675
10.5 673
10.52 647
10.54 650
10.56 650
10.58 627
10.6 636
10.62 640
10.64 626
10.66 605
10.68 610
10.7 632
10.72 653
10.74 669
10.76 619
10.78 604
10.8 644
10.82 637
10.84 610
10.86 615
10.88 651
10.9 623
10.92 611
10.94 626
10.96 624
10.98 635
11 645
11.02 576
11.04 574
11.06 652
11.08 620
11.1 619
11.12 593
11.14 585
11.16 597
11.18 600
11.2 584
11.22 583
11.24 566
11.26 590
11.28 591
11.3 577
11.32 626
11.34 583
11.36 566
11.38 573
11.4 577
11.42 566
11.44 594
11.46 614
11.48 674
11.5 627
11.52 595
11.54 586
11.56 556
11.58 619
11.6 568
11.62 563
11.64 583
11.66 620
11.68 575
11.7 572
11.72 601
11.74 550
11.76 538
11.78 580
11.8 552
11.82 580
11.84 572
11.86 555
11.88 583
11.9 578
11.92 538
11.94 525
11.96 580
11.98 551
12 578
12.02 621
12.04 590
12.06 572
12.08 521
12.1 589
12.12 587
12.14 556
12.16 555
12.18 582
12.2 530
12.22 571
12.24 564
12.26 573
12.28 594
12.3 577
12.32 558
12.34 560
12.36 568
12.38 528
12.4 588
12.42 567
12.44 568
12.46 554
12.48 567
12.5 535
12.52 583
12.54 585
12.56 549
12.58 576
12.6 529
12.62 584
12.64 541
12.66 586
12.68 568
12.7 531
12.72 557
12.74 537
12.76 549
12.78 546
12.8 575
12.82 558
12.84 567
12.86 540
12.88 525
12.9 548
12.92 548
12.94 549
12.96 535
12.98 526
13 568
13.02 544
13.04 581
13.06 565
13.08 562
13.1 550
13.12 524
13.14 548
13.16 564
13.18 521
13.2 575
13.22 553
13.24 564
13.26 594
13.28 552
13.3 539
13.32 556
13.34 539
13.36 528
13.38 558
13.4 563
13.42 523
13.44 534
13.46 537
13.48 554
13.5 533
13.52 540
13.54 517
13.56 556
13.58 548
13.6 546
13.62 543
13.64 566
13.66 534
13.68 551
13.7 526
13.72 540
13.74 564
13.76 525
13.78 532
13.8 547
13.82 568
13.84 575
13.86 545
13.88 526
13.9 579
13.92 557
13.94 554
13.96 547
13.98 545
14 543
14.02 517
14.04 564
14.06 517
14.08 516
14.1 516
14.12 511
14.14 539
14.16 563
14.18 549
14.2 564
14.22 591
14.24 567
14.26 577
14.28 547
14.3 529
14.32 551
14.34 518
14.36 515
14.38 570
14.4 509
14.42 511
14.44 524
14.46 544
14.48 555
14.5 532
14.52 521
14.54 543
14.56 569
14.58 484
14.6 541
14.62 534
14.64 557
14.66 536
14.68 529
14.7 560
14.72 576
14.74 525
14.76 576
14.78 540
14.8 509
14.82 545
14.84 537
14.86 544
14.88 562
14.9 573
14.92 560
14.94 558
14.96 537
14.98 544
15 537
15.02 545
15.04 551
15.06 564
15.08 575
15.1 576
15.12 526
15.14 526
15.16 536
15.18 536
15.2 512
15.22 562
15.24 542
15.26 552
15.28 532
15.3 557
15.32 518
15.34 523
15.36 524
15.38 487
15.4 513
15.42 528
15.44 541
15.46 537
15.48 503
15.5 553
15.52 564
15.54 549
15.56 550
15.58 536
15.6 526
15.62 506
15.64 522
15.66 516
15.68 535
15.7 551
15.72 527
15.74 554
15.76 566
15.78 505
15.8 554
15.82 496
15.84 514
15.86 543
15.88 505
15.9 514
15.92 588
15.94 539
15.96 553
15.98 529
16 510
16.02 531
16.04 492
16.06 550
16.08 562
16.1 524
16.12 529
16.14 525
16.16 517
16.18 507
16.2 521
16.22 558
16.24 484
16.26 509
16.28 503
16.3 532
16.32 538
16.34 539
16.36 527
16.38 523
16.4 548
16.42 558
16.44 522
16.46 561
16.48 540
16.5 503
16.52 564
16.54 476
16.56 558
16.58 546
16.6 521
16.62 519
16.64 533
16.66 502
16.68 582
16.7 533
16.72 527
16.74 533
16.76 522
16.78 543
16.8 542
16.82 515
16.84 546
16.86 523
16.88 555
16.9 553
16.92 592
16.94 633
16.96 611
16.98 638
17 604
17.02 634
17.04 629
17.06 632
17.08 630
17.1 649
17.12 664
17.14 658
17.16 655
17.18 622
17.2 682
17.22 655
17.24 608
17.26 636
17.28 630
17.3 588
17.32 510
17.34 560
17.36 526
17.38 520
17.4 586
17.42 544
17.44 583
17.46 555
17.48 576
17.5 554
17.52 569
17.54 550
17.56 531
17.58 543
17.6 568
17.62 541
17.64 532
17.66 580
17.68 558
17.7 541
17.72 590
17.74 572
17.76 577
17.78 550
17.8 538
17.82 526
17.84 569
17.86 553
17.88 533
17.9 532
17.92 555
17.94 581
17.96 548
17.98 557
18 556
18.02 572
18.04 581
18.06 502
18.08 547
18.1 534
18.12 554
18.14 572
18.16 559
18.18 555
18.2 514
18.22 544
18.24 564
18.26 530
18.28 556
18.3 574
18.32 523
18.34 546
18.36 552
18.38 573
18.4 531
18.42 593
18.44 557
18.46 595
18.48 544
18.5 565
18.52 565
18.54 551
18.56 548
18.58 565
18.6 518
18.62 603
18.64 551
18.66 517
18.68 574
18.7 532
18.72 552
18.74 586
18.76 604
18.78 582
18.8 589
18.82 558
18.84 548
18.86 589
18.88 550
18.9 573
18.92 577
18.94 593
18.96 565
18.98 609
19 538
19.02 584
19.04 557
19.06 536
19.08 570
19.1 561
19.12 568
19.14 566
19.16 550
19.18 575
19.2 545
19.22 544
19.24 579
19.26 539
19.28 596
19.3 591
19.32 606
19.34 592
19.36 584
19.38 576
19.4 534
19.42 583
19.44 536
19.46 558
19.48 594
19.5 575
19.52 572
19.54 592
19.56 570
19.58 584
19.6 573
19.62 571
19.64 598
19.66 580
19.68 594
19.7 615
19.72 578
19.74 598
19.76 587
19.78 562
19.8 597
19.82 609
19.84 596
19.86 597
19.88 586
19.9 580
19.92 529
19.94 604
19.96 589
19.98 585
20 603