File: xrd-UiO-67/pxrddata/41-5.ASC
3 2654
3.02 2457
3.04 2253
3.06 2044
3.08 1979
3.1 1901
3.12 1794
3.14 1767
3.16 1634
3.18 1709
3.2 1611
3.22 1565
3.24 1542
3.26 1479
3.28 1473
3.3 1535
3.32 1324
3.34 1407
3.36 1386
3.38 1376
3.4 1329
3.42 1257
3.44 1372
3.46 1308
3.48 1318
3.5 1264
3.52 1308
3.54 1322
3.56 1262
3.58 1269
3.6 1217
3.62 1289
3.64 1252
3.66 1283
3.68 1299
3.7 1200
3.72 1206
3.74 1243
3.76 1179
3.78 1194
3.8 1244
3.82 1199
3.84 1239
3.86 1187
3.88 1127
3.9 1167
3.92 1129
3.94 1177
3.96 1146
3.98 1112
4 1162
4.02 1132
4.04 1125
4.06 1188
4.08 1110
4.1 1089
4.12 1131
4.14 1085
4.16 1063
4.18 1121
4.2 1092
4.22 1112
4.24 1102
4.26 1064
4.28 1066
4.3 1111
4.32 1139
4.34 1066
4.36 1096
4.38 1035
4.4 1025
4.42 1059
4.44 1048
4.46 1077
4.48 1045
4.5 1017
4.52 1137
4.54 1006
4.56 1075
4.58 1037
4.6 1055
4.62 1091
4.64 1117
4.66 1030
4.68 1029
4.7 1057
4.72 1068
4.74 995
4.76 1035
4.78 1031
4.8 1076
4.82 1072
4.84 996
4.86 1063
4.88 1020
4.9 1114
4.92 1079
4.94 1116
4.96 1007
4.98 1090
5 1070
5.02 1082
5.04 1080
5.06 1167
5.08 1139
5.1 1134
5.12 1137
5.14 1176
5.16 1227
5.18 1139
5.2 1133
5.22 1191
5.24 1251
5.26 1311
5.28 1396
5.3 1440
5.32 1509
5.34 1459
5.36 1630
5.38 1601
5.4 1740
5.42 1880
5.44 1940
5.46 2002
5.48 1952
5.5 1795
5.52 1575
5.54 1410
5.56 1264
5.58 1277
5.6 1131
5.62 1130
5.64 1087
5.66 1074
5.68 1036
5.7 1059
5.72 1076
5.74 1041
5.76 1065
5.78 982
5.8 997
5.82 1036
5.84 977
5.86 989
5.88 959
5.9 951
5.92 920
5.94 911
5.96 936
5.98 933
6 926
6.02 932
6.04 889
6.06 861
6.08 858
6.1 889
6.12 947
6.14 915
6.16 911
6.18 877
6.2 898
6.22 866
6.24 890
6.26 867
6.28 923
6.3 845
6.32 825
6.34 845
6.36 901
6.38 839
6.4 864
6.42 889
6.44 822
6.46 864
6.48 866
6.5 841
6.52 875
6.54 858
6.56 864
6.58 837
6.6 793
6.62 823
6.64 848
6.66 898
6.68 847
6.7 793
6.72 822
6.74 848
6.76 831
6.78 844
6.8 862
6.82 768
6.84 843
6.86 866
6.88 839
6.9 838
6.92 800
6.94 814
6.96 865
6.98 849
7 799
7.02 856
7.04 811
7.06 822
7.08 842
7.1 755
7.12 794
7.14 848
7.16 772
7.18 788
7.2 803
7.22 810
7.24 806
7.26 782
7.28 800
7.3 777
7.32 819
7.34 794
7.36 798
7.38 718
7.4 729
7.42 775
7.44 751
7.46 759
7.48 748
7.5 750
7.52 747
7.54 752
7.56 727
7.58 772
7.6 804
7.62 783
7.64 805
7.66 737
7.68 708
7.7 752
7.72 697
7.74 744
7.76 770
7.78 740
7.8 740
7.82 750
7.84 745
7.86 736
7.88 776
7.9 729
7.92 774
7.94 780
7.96 735
7.98 737
8 719
8.02 720
8.04 687
8.06 648
8.08 717
8.1 697
8.12 730
8.14 700
8.16 669
8.18 680
8.2 738
8.22 700
8.24 675
8.26 729
8.28 679
8.3 683
8.32 737
8.34 687
8.36 709
8.38 631
8.4 693
8.42 679
8.44 680
8.46 684
8.48 634
8.5 693
8.52 674
8.54 671
8.56 715
8.58 650
8.6 701
8.62 666
8.64 670
8.66 695
8.68 679
8.7 758
8.72 684
8.74 699
8.76 724
8.78 656
8.8 739
8.82 668
8.84 665
8.86 715
8.88 660
8.9 678
8.92 665
8.94 651
8.96 684
8.98 651
9 684
9.02 653
9.04 694
9.06 654
9.08 669
9.1 708
9.12 687
9.14 709
9.16 673
9.18 672
9.2 674
9.22 677
9.24 669
9.26 720
9.28 697
9.3 728
9.32 755
9.34 775
9.36 789
9.38 727
9.4 770
9.42 752
9.44 819
9.46 847
9.48 773
9.5 710
9.52 660
9.54 646
9.56 651
9.58 623
9.6 675
9.62 635
9.64 646
9.66 620
9.68 641
9.7 611
9.72 621
9.74 602
9.76 615
9.78 556
9.8 652
9.82 615
9.84 597
9.86 619
9.88 590
9.9 637
9.92 628
9.94 596
9.96 553
9.98 577
10 579
10.02 579
10.04 575
10.06 626
10.08 593
10.1 576
10.12 612
10.14 590
10.16 595
10.18 569
10.2 611
10.22 586
10.24 551
10.26 627
10.28 567
10.3 585
10.32 563
10.34 612
10.36 574
10.38 570
10.4 602
10.42 604
10.44 571
10.46 599
10.48 659
10.5 632
10.52 614
10.54 587
10.56 600
10.58 555
10.6 629
10.62 608
10.64 631
10.66 614
10.68 603
10.7 590
10.72 629
10.74 588
10.76 610
10.78 651
10.8 615
10.82 590
10.84 637
10.86 658
10.88 652
10.9 630
10.92 601
10.94 612
10.96 600
10.98 606
11 655
11.02 561
11.04 601
11.06 596
11.08 559
11.1 531
11.12 615
11.14 557
11.16 566
11.18 553
11.2 563
11.22 558
11.24 548
11.26 514
11.28 547
11.3 546
11.32 550
11.34 589
11.36 545
11.38 543
11.4 566
11.42 527
11.44 555
11.46 563
11.48 570
11.5 549
11.52 573
11.54 551
11.56 571
11.58 545
11.6 474
11.62 531
11.64 499
11.66 542
11.68 531
11.7 542
11.72 558
11.74 516
11.76 547
11.78 544
11.8 536
11.82 533
11.84 512
11.86 545
11.88 529
11.9 549
11.92 541
11.94 557
11.96 560
11.98 516
12 532
12.02 541
12.04 539
12.06 510
12.08 544
12.1 522
12.12 536
12.14 562
12.16 516
12.18 516
12.2 506
12.22 550
12.24 522
12.26 549
12.28 564
12.3 504
12.32 554
12.34 550
12.36 513
12.38 526
12.4 532
12.42 512
12.44 497
12.46 502
12.48 587
12.5 534
12.52 555
12.54 522
12.56 532
12.58 523
12.6 524
12.62 509
12.64 554
12.66 524
12.68 518
12.7 499
12.72 537
12.74 494
12.76 520
12.78 547
12.8 515
12.82 505
12.84 548
12.86 515
12.88 498
12.9 492
12.92 545
12.94 481
12.96 511
12.98 498
13 527
13.02 496
13.04 448
13.06 525
13.08 475
13.1 526
13.12 483
13.14 482
13.16 536
13.18 479
13.2 506
13.22 563
13.24 494
13.26 498
13.28 519
13.3 516
13.32 510
13.34 502
13.36 530
13.38 496
13.4 461
13.42 489
13.44 501
13.46 508
13.48 519
13.5 516
13.52 542
13.54 519
13.56 507
13.58 520
13.6 512
13.62 484
13.64 505
13.66 496
13.68 499
13.7 545
13.72 491
13.74 496
13.76 505
13.78 502
13.8 528
13.82 506
13.84 517
13.86 517
13.88 459
13.9 477
13.92 499
13.94 517
13.96 515
13.98 503
14 516
14.02 517
14.04 489
14.06 521
14.08 506
14.1 551
14.12 510
14.14 514
14.16 501
14.18 504
14.2 550
14.22 511
14.24 481
14.26 482
14.28 491
14.3 473
14.32 474
14.34 512
14.36 484
14.38 511
14.4 513
14.42 495
14.44 510
14.46 518
14.48 488
14.5 515
14.52 503
14.54 495
14.56 489
14.58 524
14.6 506
14.62 454
14.64 509
14.66 505
14.68 466
14.7 525
14.72 486
14.74 462
14.76 514
14.78 475
14.8 523
14.82 506
14.84 503
14.86 461
14.88 502
14.9 502
14.92 520
14.94 432
14.96 493
14.98 513
15 472
15.02 529
15.04 514
15.06 538
15.08 509
15.1 528
15.12 503
15.14 472
15.16 515
15.18 528
15.2 474
15.22 507
15.24 498
15.26 523
15.28 504
15.3 451
15.32 496
15.34 529
15.36 507
15.38 464
15.4 510
15.42 511
15.44 535
15.46 477
15.48 450
15.5 503
15.52 479
15.54 517
15.56 460
15.58 464
15.6 477
15.62 490
15.64 497
15.66 493
15.68 464
15.7 444
15.72 508
15.74 439
15.76 482
15.78 452
15.8 493
15.82 484
15.84 460
15.86 471
15.88 508
15.9 496
15.92 493
15.94 469
15.96 496
15.98 484
16 462
16.02 521
16.04 461
16.06 493
16.08 468
16.1 477
16.12 482
16.14 473
16.16 481
16.18 453
16.2 496
16.22 490
16.24 497
16.26 474
16.28 475
16.3 464
16.32 485
16.34 500
16.36 510
16.38 474
16.4 487
16.42 499
16.44 468
16.46 466
16.48 478
16.5 486
16.52 465
16.54 489
16.56 507
16.58 477
16.6 435
16.62 505
16.64 514
16.66 511
16.68 491
16.7 484
16.72 506
16.74 500
16.76 494
16.78 486
16.8 494
16.82 524
16.84 495
16.86 521
16.88 507
16.9 520
16.92 506
16.94 545
16.96 542
16.98 546
17 557
17.02 516
17.04 512
17.06 498
17.08 579
17.1 623
17.12 645
17.14 538
17.16 542
17.18 591
17.2 553
17.22 585
17.24 565
17.26 553
17.28 546
17.3 510
17.32 499
17.34 522
17.36 522
17.38 493
17.4 482
17.42 507
17.44 486
17.46 497
17.48 503
17.5 499
17.52 509
17.54 479
17.56 515
17.58 498
17.6 486
17.62 486
17.64 496
17.66 487
17.68 513
17.7 497
17.72 458
17.74 501
17.76 490
17.78 496
17.8 527
17.82 476
17.84 501
17.86 524
17.88 487
17.9 524
17.92 489
17.94 530
17.96 532
17.98 510
18 511
18.02 495
18.04 531
18.06 452
18.08 480
18.1 518
18.12 472
18.14 519
18.16 502
18.18 493
18.2 507
18.22 513
18.24 503
18.26 508
18.28 482
18.3 479
18.32 489
18.34 526
18.36 503
18.38 499
18.4 513
18.42 485
18.44 543
18.46 523
18.48 537
18.5 508
18.52 490
18.54 503
18.56 513
18.58 544
18.6 463
18.62 513
18.64 507
18.66 468
18.68 507
18.7 496
18.72 499
18.74 522
18.76 500
18.78 526
18.8 505
18.82 522
18.84 525
18.86 575
18.88 535
18.9 530
18.92 512
18.94 498
18.96 509
18.98 519
19 495
19.02 514
19.04 483
19.06 519
19.08 540
19.1 501
19.12 518
19.14 535
19.16 534
19.18 493
19.2 513
19.22 527
19.24 507
19.26 537
19.28 529
19.3 503
19.32 487
19.34 523
19.36 508
19.38 510
19.4 502
19.42 522
19.44 520
19.46 495
19.48 538
19.5 542
19.52 537
19.54 511
19.56 519
19.58 563
19.6 550
19.62 552
19.64 560
19.66 557
19.68 554
19.7 513
19.72 580
19.74 541
19.76 503
19.78 524
19.8 529
19.82 510
19.84 525
19.86 489
19.88 485
19.9 520
19.92 515
19.94 494
19.96 526
19.98 531
20 525