File: xrd-UiO-67/pxrddata/41-6.ASC
3 2432
3.02 2416
3.04 2146
3.06 1802
3.08 1746
3.1 1593
3.12 1618
3.14 1612
3.16 1544
3.18 1542
3.2 1514
3.22 1576
3.24 1502
3.26 1493
3.28 1443
3.3 1455
3.32 1404
3.34 1454
3.36 1461
3.38 1428
3.4 1374
3.42 1447
3.44 1432
3.46 1333
3.48 1314
3.5 1380
3.52 1356
3.54 1298
3.56 1301
3.58 1344
3.6 1283
3.62 1345
3.64 1304
3.66 1314
3.68 1360
3.7 1310
3.72 1226
3.74 1205
3.76 1208
3.78 1224
3.8 1244
3.82 1288
3.84 1294
3.86 1199
3.88 1219
3.9 1226
3.92 1254
3.94 1248
3.96 1255
3.98 1170
4 1182
4.02 1179
4.04 1186
4.06 1197
4.08 1232
4.1 1181
4.12 1206
4.14 1282
4.16 1162
4.18 1181
4.2 1247
4.22 1121
4.24 1148
4.26 1154
4.28 1221
4.3 1194
4.32 1214
4.34 1139
4.36 1145
4.38 1176
4.4 1150
4.42 1152
4.44 1148
4.46 1129
4.48 1153
4.5 1151
4.52 1184
4.54 1178
4.56 1135
4.58 1138
4.6 1187
4.62 1124
4.64 1139
4.66 1173
4.68 1090
4.7 1130
4.72 1101
4.74 1119
4.76 1144
4.78 1175
4.8 1143
4.82 1180
4.84 1132
4.86 1166
4.88 1072
4.9 1185
4.92 1097
4.94 1096
4.96 1127
4.98 1134
5 1170
5.02 1154
5.04 1135
5.06 1117
5.08 1120
5.1 1146
5.12 1161
5.14 1106
5.16 1178
5.18 1139
5.2 1118
5.22 1130
5.24 1146
5.26 1113
5.28 1094
5.3 1153
5.32 1189
5.34 1133
5.36 1167
5.38 1152
5.4 1164
5.42 1223
5.44 1167
5.46 1173
5.48 1105
5.5 1125
5.52 1185
5.54 1157
5.56 1171
5.58 1177
5.6 1154
5.62 1017
5.64 1121
5.66 1064
5.68 1083
5.7 1093
5.72 1066
5.74 1076
5.76 1087
5.78 1069
5.8 1037
5.82 956
5.84 1064
5.86 1044
5.88 978
5.9 982
5.92 1019
5.94 1025
5.96 1013
5.98 958
6 994
6.02 999
6.04 965
6.06 921
6.08 918
6.1 994
6.12 941
6.14 983
6.16 927
6.18 992
6.2 931
6.22 958
6.24 969
6.26 905
6.28 925
6.3 897
6.32 909
6.34 908
6.36 886
6.38 940
6.4 954
6.42 892
6.44 909
6.46 905
6.48 949
6.5 943
6.52 918
6.54 944
6.56 876
6.58 823
6.6 890
6.62 890
6.64 878
6.66 908
6.68 905
6.7 850
6.72 854
6.74 929
6.76 882
6.78 878
6.8 871
6.82 916
6.84 899
6.86 892
6.88 868
6.9 848
6.92 861
6.94 869
6.96 823
6.98 834
7 822
7.02 798
7.04 836
7.06 807
7.08 874
7.1 847
7.12 839
7.14 790
7.16 773
7.18 816
7.2 816
7.22 831
7.24 786
7.26 778
7.28 800
7.3 801
7.32 781
7.34 794
7.36 810
7.38 802
7.4 824
7.42 831
7.44 768
7.46 823
7.48 776
7.5 808
7.52 811
7.54 818
7.56 750
7.58 770
7.6 806
7.62 801
7.64 787
7.66 784
7.68 747
7.7 796
7.72 747
7.74 778
7.76 819
7.78 744
7.8 744
7.82 736
7.84 765
7.86 748
7.88 762
7.9 824
7.92 737
7.94 739
7.96 801
7.98 753
8 755
8.02 774
8.04 741
8.06 751
8.08 761
8.1 746
8.12 682
8.14 739
8.16 681
8.18 735
8.2 696
8.22 687
8.24 738
8.26 762
8.28 673
8.3 702
8.32 679
8.34 753
8.36 715
8.38 688
8.4 730
8.42 723
8.44 715
8.46 681
8.48 699
8.5 682
8.52 690
8.54 720
8.56 729
8.58 693
8.6 672
8.62 710
8.64 668
8.66 706
8.68 701
8.7 710
8.72 732
8.74 667
8.76 734
8.78 739
8.8 747
8.82 698
8.84 674
8.86 700
8.88 667
8.9 705
8.92 686
8.94 709
8.96 680
8.98 682
9 709
9.02 631
9.04 622
9.06 633
9.08 663
9.1 676
9.12 661
9.14 669
9.16 667
9.18 650
9.2 650
9.22 691
9.24 691
9.26 669
9.28 665
9.3 676
9.32 717
9.34 697
9.36 663
9.38 652
9.4 683
9.42 680
9.44 726
9.46 674
9.48 685
9.5 690
9.52 687
9.54 700
9.56 730
9.58 686
9.6 636
9.62 696
9.64 711
9.66 721
9.68 674
9.7 663
9.72 662
9.74 655
9.76 641
9.78 626
9.8 637
9.82 632
9.84 636
9.86 643
9.88 621
9.9 626
9.92 620
9.94 675
9.96 650
9.98 569
10 608
10.02 574
10.04 648
10.06 623
10.08 609
10.1 615
10.12 632
10.14 610
10.16 631
10.18 646
10.2 562
10.22 657
10.24 654
10.26 586
10.28 629
10.3 660
10.32 637
10.34 632
10.36 647
10.38 572
10.4 592
10.42 573
10.44 622
10.46 637
10.48 569
10.5 639
10.52 559
10.54 581
10.56 598
10.58 602
10.6 609
10.62 611
10.64 591
10.66 573
10.68 616
10.7 588
10.72 601
10.74 617
10.76 593
10.78 574
10.8 598
10.82 605
10.84 554
10.86 611
10.88 597
10.9 583
10.92 580
10.94 564
10.96 587
10.98 558
11 603
11.02 597
11.04 585
11.06 563
11.08 597
11.1 576
11.12 569
11.14 597
11.16 567
11.18 581
11.2 513
11.22 586
11.24 584
11.26 523
11.28 556
11.3 551
11.32 579
11.34 560
11.36 576
11.38 537
11.4 610
11.42 580
11.44 556
11.46 562
11.48 555
11.5 539
11.52 540
11.54 517
11.56 575
11.58 574
11.6 544
11.62 589
11.64 544
11.66 519
11.68 539
11.7 557
11.72 596
11.74 535
11.76 518
11.78 556
11.8 551
11.82 569
11.84 529
11.86 562
11.88 511
11.9 545
11.92 547
11.94 525
11.96 548
11.98 527
12 529
12.02 545
12.04 555
12.06 537
12.08 537
12.1 539
12.12 537
12.14 508
12.16 545
12.18 545
12.2 572
12.22 542
12.24 536
12.26 535
12.28 547
12.3 506
12.32 528
12.34 572
12.36 509
12.38 558
12.4 547
12.42 547
12.44 563
12.46 471
12.48 508
12.5 558
12.52 516
12.54 544
12.56 512
12.58 516
12.6 558
12.62 532
12.64 537
12.66 523
12.68 546
12.7 479
12.72 513
12.74 549
12.76 575
12.78 536
12.8 510
12.82 513
12.84 516
12.86 545
12.88 491
12.9 495
12.92 520
12.94 541
12.96 527
12.98 537
13 545
13.02 525
13.04 514
13.06 557
13.08 524
13.1 518
13.12 570
13.14 491
13.16 546
13.18 552
13.2 542
13.22 533
13.24 503
13.26 503
13.28 540
13.3 505
13.32 490
13.34 524
13.36 491
13.38 516
13.4 491
13.42 515
13.44 500
13.46 498
13.48 479
13.5 516
13.52 507
13.54 505
13.56 548
13.58 546
13.6 503
13.62 519
13.64 492
13.66 507
13.68 521
13.7 533
13.72 538
13.74 536
13.76 517
13.78 506
13.8 537
13.82 528
13.84 510
13.86 506
13.88 502
13.9 535
13.92 534
13.94 515
13.96 546
13.98 499
14 502
14.02 523
14.04 485
14.06 510
14.08 507
14.1 533
14.12 495
14.14 520
14.16 519
14.18 498
14.2 510
14.22 462
14.24 509
14.26 512
14.28 493
14.3 521
14.32 524
14.34 493
14.36 502
14.38 500
14.4 510
14.42 515
14.44 518
14.46 500
14.48 525
14.5 508
14.52 516
14.54 495
14.56 544
14.58 514
14.6 491
14.62 486
14.64 559
14.66 511
14.68 489
14.7 514
14.72 526
14.74 545
14.76 521
14.78 533
14.8 529
14.82 526
14.84 488
14.86 505
14.88 512
14.9 499
14.92 508
14.94 507
14.96 494
14.98 548
15 536
15.02 568
15.04 499
15.06 492
15.08 492
15.1 535
15.12 541
15.14 510
15.16 504
15.18 519
15.2 537
15.22 512
15.24 525
15.26 539
15.28 515
15.3 540
15.32 510
15.34 530
15.36 571
15.38 536
15.4 514
15.42 532
15.44 516
15.46 507
15.48 506
15.5 520
15.52 508
15.54 519
15.56 502
15.58 514
15.6 541
15.62 514
15.64 543
15.66 521
15.68 515
15.7 493
15.72 513
15.74 505
15.76 540
15.78 540
15.8 548
15.82 514
15.84 511
15.86 492
15.88 504
15.9 536
15.92 495
15.94 509
15.96 541
15.98 510
16 523
16.02 531
16.04 528
16.06 525
16.08 530
16.1 525
16.12 521
16.14 539
16.16 516
16.18 556
16.2 535
16.22 501
16.24 515
16.26 483
16.28 522
16.3 536
16.32 519
16.34 520
16.36 537
16.38 539
16.4 542
16.42 541
16.44 566
16.46 526
16.48 518
16.5 541
16.52 521
16.54 554
16.56 561
16.58 521
16.6 568
16.62 545
16.64 536
16.66 546
16.68 552
16.7 539
16.72 550
16.74 580
16.76 550
16.78 558
16.8 544
16.82 543
16.84 586
16.86 547
16.88 547
16.9 544
16.92 577
16.94 588
16.96 630
16.98 643
17 664
17.02 617
17.04 626
17.06 671
17.08 705
17.1 761
17.12 803
17.14 818
17.16 793
17.18 765
17.2 840
17.22 830
17.24 731
17.26 722
17.28 612
17.3 592
17.32 556
17.34 586
17.36 587
17.38 543
17.4 565
17.42 572
17.44 550
17.46 554
17.48 567
17.5 529
17.52 578
17.54 528
17.56 514
17.58 570
17.6 556
17.62 581
17.64 563
17.66 558
17.68 546
17.7 572
17.72 569
17.74 562
17.76 538
17.78 534
17.8 534
17.82 561
17.84 549
17.86 550
17.88 543
17.9 526
17.92 569
17.94 568
17.96 578
17.98 550
18 569
18.02 584
18.04 557
18.06 560
18.08 550
18.1 600
18.12 582
18.14 537
18.16 552
18.18 552
18.2 581
18.22 554
18.24 573
18.26 571
18.28 570
18.3 574
18.32 581
18.34 548
18.36 546
18.38 577
18.4 594
18.42 598
18.44 537
18.46 602
18.48 615
18.5 520
18.52 577
18.54 568
18.56 580
18.58 605
18.6 563
18.62 542
18.64 542
18.66 499
18.68 537
18.7 602
18.72 583
18.74 530
18.76 535
18.78 540
18.8 599
18.82 596
18.84 550
18.86 561
18.88 573
18.9 578
18.92 539
18.94 584
18.96 574
18.98 559
19 560
19.02 579
19.04 573
19.06 579
19.08 562
19.1 538
19.12 576
19.14 566
19.16 581
19.18 598
19.2 596
19.22 589
19.24 580
19.26 563
19.28 559
19.3 590
19.32 627
19.34 594
19.36 563
19.38 598
19.4 538
19.42 540
19.44 594
19.46 595
19.48 552
19.5 575
19.52 534
19.54 589
19.56 589
19.58 566
19.6 553
19.62 605
19.64 576
19.66 568
19.68 593
19.7 590
19.72 586
19.74 591
19.76 501
19.78 588
19.8 566
19.82 597
19.84 574
19.86 595
19.88 591
19.9 588
19.92 649
19.94 585
19.96 582
19.98 604
20 596