File: xrd-UiO-67/pxrddata/43-10.ASC
3 2375
3.02 2220
3.04 2112
3.06 2029
3.08 1904
3.1 1789
3.12 1812
3.14 1705
3.16 1665
3.18 1661
3.2 1638
3.22 1681
3.24 1561
3.26 1538
3.28 1495
3.3 1504
3.32 1516
3.34 1460
3.36 1494
3.38 1512
3.4 1493
3.42 1427
3.44 1429
3.46 1418
3.48 1403
3.5 1348
3.52 1412
3.54 1401
3.56 1366
3.58 1362
3.6 1302
3.62 1352
3.64 1302
3.66 1337
3.68 1339
3.7 1267
3.72 1215
3.74 1269
3.76 1237
3.78 1221
3.8 1197
3.82 1206
3.84 1263
3.86 1219
3.88 1156
3.9 1218
3.92 1129
3.94 1143
3.96 1194
3.98 1207
4 1141
4.02 1152
4.04 1171
4.06 1158
4.08 1125
4.1 1079
4.12 1093
4.14 1156
4.16 1096
4.18 1111
4.2 1152
4.22 1060
4.24 1087
4.26 1098
4.28 1095
4.3 1044
4.32 1090
4.34 1052
4.36 1051
4.38 1077
4.4 1015
4.42 1029
4.44 1031
4.46 1012
4.48 1001
4.5 970
4.52 955
4.54 1020
4.56 1025
4.58 964
4.6 1046
4.62 1073
4.64 1048
4.66 1042
4.68 962
4.7 935
4.72 1005
4.74 1006
4.76 1004
4.78 1027
4.8 999
4.82 942
4.84 1003
4.86 1033
4.88 1002
4.9 1049
4.92 1023
4.94 1055
4.96 1005
4.98 1011
5 1049
5.02 1052
5.04 1015
5.06 1023
5.08 1049
5.1 1077
5.12 1043
5.14 1055
5.16 1101
5.18 1160
5.2 1139
5.22 1173
5.24 1218
5.26 1172
5.28 1220
5.3 1259
5.32 1391
5.34 1334
5.36 1491
5.38 1443
5.4 1579
5.42 1673
5.44 1909
5.46 2035
5.48 1955
5.5 1715
5.52 1458
5.54 1338
5.56 1238
5.58 1230
5.6 1205
5.62 1181
5.64 1152
5.66 1218
5.68 1182
5.7 1187
5.72 1180
5.74 1191
5.76 1264
5.78 1202
5.8 1333
5.82 1241
5.84 1213
5.86 1095
5.88 1075
5.9 978
5.92 899
5.94 859
5.96 850
5.98 841
6 820
6.02 815
6.04 834
6.06 783
6.08 714
6.1 787
6.12 773
6.14 713
6.16 818
6.18 721
6.2 735
6.22 829
6.24 772
6.26 700
6.28 703
6.3 716
6.32 743
6.34 674
6.36 731
6.38 695
6.4 727
6.42 697
6.44 663
6.46 734
6.48 709
6.5 721
6.52 721
6.54 760
6.56 727
6.58 680
6.6 731
6.62 701
6.64 719
6.66 678
6.68 756
6.7 779
6.72 734
6.74 708
6.76 737
6.78 755
6.8 741
6.82 746
6.84 723
6.86 709
6.88 704
6.9 696
6.92 713
6.94 686
6.96 676
6.98 709
7 642
7.02 678
7.04 685
7.06 659
7.08 671
7.1 685
7.12 674
7.14 658
7.16 647
7.18 686
7.2 655
7.22 717
7.24 691
7.26 654
7.28 675
7.3 647
7.32 651
7.34 708
7.36 675
7.38 657
7.4 654
7.42 648
7.44 709
7.46 662
7.48 673
7.5 659
7.52 624
7.54 673
7.56 695
7.58 696
7.6 656
7.62 665
7.64 644
7.66 680
7.68 701
7.7 658
7.72 661
7.74 711
7.76 693
7.78 663
7.8 704
7.82 655
7.84 743
7.86 607
7.88 685
7.9 631
7.92 634
7.94 688
7.96 651
7.98 660
8 647
8.02 691
8.04 666
8.06 641
8.08 647
8.1 681
8.12 660
8.14 702
8.16 657
8.18 661
8.2 633
8.22 625
8.24 651
8.26 658
8.28 654
8.3 700
8.32 640
8.34 648
8.36 690
8.38 630
8.4 664
8.42 632
8.44 614
8.46 688
8.48 687
8.5 679
8.52 661
8.54 614
8.56 663
8.58 631
8.6 632
8.62 650
8.64 642
8.66 644
8.68 679
8.7 682
8.72 694
8.74 683
8.76 675
8.78 698
8.8 687
8.82 679
8.84 671
8.86 710
8.88 690
8.9 702
8.92 654
8.94 679
8.96 621
8.98 698
9 655
9.02 671
9.04 703
9.06 693
9.08 698
9.1 704
9.12 718
9.14 730
9.16 718
9.18 768
9.2 763
9.22 787
9.24 836
9.26 830
9.28 899
9.3 890
9.32 1012
9.34 984
9.36 1088
9.38 1138
9.4 1077
9.42 891
9.44 779
9.46 693
9.48 707
9.5 677
9.52 676
9.54 693
9.56 702
9.58 746
9.6 726
9.62 696
9.64 674
9.66 662
9.68 650
9.7 653
9.72 637
9.74 687
9.76 704
9.78 664
9.8 634
9.82 659
9.84 704
9.86 694
9.88 645
9.9 632
9.92 748
9.94 645
9.96 626
9.98 672
10 704
10.02 657
10.04 695
10.06 713
10.08 672
10.1 692
10.12 675
10.14 686
10.16 658
10.18 732
10.2 713
10.22 721
10.24 700
10.26 679
10.28 701
10.3 711
10.32 675
10.34 652
10.36 663
10.38 611
10.4 656
10.42 662
10.44 651
10.46 684
10.48 691
10.5 661
10.52 632
10.54 652
10.56 686
10.58 696
10.6 659
10.62 676
10.64 723
10.66 706
10.68 711
10.7 740
10.72 772
10.74 775
10.76 787
10.78 860
10.8 849
10.82 832
10.84 900
10.86 830
10.88 711
10.9 729
10.92 789
10.94 727
10.96 736
10.98 775
11 786
11.02 796
11.04 714
11.06 721
11.08 689
11.1 666
11.12 710
11.14 658
11.16 677
11.18 674
11.2 641
11.22 659
11.24 702
11.26 702
11.28 646
11.3 651
11.32 616
11.34 656
11.36 648
11.38 703
11.4 659
11.42 738
11.44 660
11.46 725
11.48 724
11.5 704
11.52 701
11.54 706
11.56 753
11.58 737
11.6 726
11.62 696
11.64 701
11.66 697
11.68 682
11.7 704
11.72 677
11.74 704
11.76 689
11.78 631
11.8 679
11.82 621
11.84 698
11.86 683
11.88 698
11.9 701
11.92 703
11.94 679
11.96 691
11.98 695
12 682
12.02 725
12.04 676
12.06 674
12.08 711
12.1 678
12.12 725
12.14 678
12.16 714
12.18 716
12.2 687
12.22 690
12.24 656
12.26 704
12.28 718
12.3 702
12.32 700
12.34 669
12.36 754
12.38 693
12.4 666
12.42 713
12.44 677
12.46 732
12.48 707
12.5 717
12.52 711
12.54 757
12.56 729
12.58 674
12.6 734
12.62 721
12.64 715
12.66 714
12.68 697
12.7 702
12.72 702
12.74 649
12.76 712
12.78 677
12.8 736
12.82 685
12.84 764
12.86 735
12.88 767
12.9 711
12.92 716
12.94 740
12.96 760
12.98 765
13 759
13.02 751
13.04 758
13.06 748
13.08 721
13.1 728
13.12 744
13.14 777
13.16 750
13.18 808
13.2 763
13.22 773
13.24 835
13.26 887
13.28 889
13.3 942
13.32 881
13.34 883
13.36 844
13.38 795
13.4 750
13.42 774
13.44 777
13.46 738
13.48 777
13.5 794
13.52 785
13.54 770
13.56 737
13.58 742
13.6 738
13.62 772
13.64 741
13.66 747
13.68 738
13.7 734
13.72 743
13.74 731
13.76 738
13.78 780
13.8 716
13.82 825
13.84 775
13.86 814
13.88 784
13.9 805
13.92 781
13.94 819
13.96 808
13.98 749
14 784
14.02 790
14.04 828
14.06 826
14.08 778
14.1 825
14.12 830
14.14 802
14.16 743
14.18 775
14.2 840
14.22 785
14.24 856
14.26 807
14.28 843
14.3 831
14.32 802
14.34 845
14.36 802
14.38 816
14.4 841
14.42 837
14.44 814
14.46 846
14.48 845
14.5 825
14.52 823
14.54 863
14.56 827
14.58 828
14.6 850
14.62 854
14.64 839
14.66 895
14.68 808
14.7 859
14.72 855
14.74 858
14.76 815
14.78 874
14.8 843
14.82 851
14.84 830
14.86 875
14.88 885
14.9 887
14.92 885
14.94 883
14.96 888
14.98 875
15 891
15.02 848
15.04 833
15.06 921
15.08 932
15.1 936
15.12 903
15.14 894
15.16 910
15.18 833
15.2 915
15.22 918
15.24 902
15.26 904
15.28 936
15.3 974
15.32 944
15.34 957
15.36 976
15.38 913
15.4 970
15.42 965
15.44 954
15.46 931
15.48 915
15.5 932
15.52 968
15.54 946
15.56 934
15.58 989
15.6 899
15.62 971
15.64 915
15.66 905
15.68 902
15.7 936
15.72 1033
15.74 949
15.76 949
15.78 991
15.8 947
15.82 1028
15.84 966
15.86 1003
15.88 945
15.9 1002
15.92 1029
15.94 1018
15.96 982
15.98 965
16 1026
16.02 998
16.04 1010
16.06 1006
16.08 979
16.1 1013
16.12 998
16.14 1020
16.16 943
16.18 1032
16.2 981
16.22 1011
16.24 990
16.26 997
16.28 1019
16.3 1000
16.32 989
16.34 1064
16.36 1028
16.38 1022
16.4 1053
16.42 1060
16.44 1097
16.46 1108
16.48 1150
16.5 1122
16.52 1098
16.54 1172
16.56 1109
16.58 1114
16.6 1182
16.62 1241
16.64 1159
16.66 1215
16.68 1156
16.7 1201
16.72 1297
16.74 1179
16.76 1313
16.78 1320
16.8 1349
16.82 1489
16.84 1636
16.86 1794
16.88 1827
16.9 2066
16.92 2285
16.94 2686
16.96 3325
16.98 4264
17 5491
17.02 6773
17.04 7512
17.06 7362
17.08 5895
17.1 4032
17.12 2754
17.14 1808
17.16 1436
17.18 1403
17.2 1283
17.22 1337
17.24 1306
17.26 1260
17.28 1251
17.3 1201
17.32 1246
17.34 1275
17.36 1303
17.38 1326
17.4 1261
17.42 1306
17.44 1281
17.46 1310
17.48 1282
17.5 1210
17.52 1212
17.54 1316
17.56 1248
17.58 1288
17.6 1233
17.62 1214
17.64 1307
17.66 1316
17.68 1309
17.7 1375
17.72 1276
17.74 1311
17.76 1251
17.78 1340
17.8 1422
17.82 1332
17.84 1319
17.86 1321
17.88 1293
17.9 1339
17.92 1371
17.94 1363
17.96 1340
17.98 1380
18 1302
18.02 1287
18.04 1362
18.06 1401
18.08 1406
18.1 1396
18.12 1391
18.14 1411
18.16 1395
18.18 1369
18.2 1413
18.22 1370
18.24 1443
18.26 1364
18.28 1386
18.3 1402
18.32 1391
18.34 1410
18.36 1384
18.38 1376
18.4 1414
18.42 1408
18.44 1468
18.46 1417
18.48 1451
18.5 1507
18.52 1538
18.54 1461
18.56 1420
18.58 1495
18.6 1529
18.62 1519
18.64 1489
18.66 1501
18.68 1461
18.7 1488
18.72 1505
18.74 1511
18.76 1526
18.78 1508
18.8 1483
18.82 1514
18.84 1545
18.86 1592
18.88 1476
18.9 1562
18.92 1549
18.94 1538
18.96 1579
18.98 1578
19 1593
19.02 1542
19.04 1599
19.06 1603
19.08 1566
19.1 1555
19.12 1581
19.14 1645
19.16 1610
19.18 1623
19.2 1576
19.22 1589
19.24 1663
19.26 1638
19.28 1626
19.3 1647
19.32 1591
19.34 1575
19.36 1675
19.38 1680
19.4 1710
19.42 1719
19.44 1649
19.46 1731
19.48 1727
19.5 1744
19.52 1732
19.54 1725
19.56 1831
19.58 1743
19.6 1659
19.62 1663
19.64 1694
19.66 1689
19.68 1692
19.7 1656
19.72 1777
19.74 1697
19.76 1746
19.78 1698
19.8 1752
19.82 1762
19.84 1721
19.86 1760
19.88 1701
19.9 1709
19.92 1694
19.94 1689
19.96 1680
19.98 1671
20 1729