File: xrd-UiO-67/pxrddata/44-12.ASC
3 1950
3.02 1786
3.04 1587
3.06 1541
3.08 1424
3.1 1393
3.12 1324
3.14 1291
3.16 1251
3.18 1215
3.2 1196
3.22 1260
3.24 1203
3.26 1181
3.28 1178
3.3 1186
3.32 1064
3.34 1094
3.36 1067
3.38 1116
3.4 1100
3.42 1146
3.44 1038
3.46 1056
3.48 1041
3.5 1040
3.52 1082
3.54 1004
3.56 988
3.58 1027
3.6 1012
3.62 1017
3.64 1006
3.66 1024
3.68 997
3.7 956
3.72 998
3.74 967
3.76 993
3.78 968
3.8 945
3.82 946
3.84 952
3.86 928
3.88 954
3.9 959
3.92 925
3.94 955
3.96 922
3.98 883
4 977
4.02 896
4.04 906
4.06 890
4.08 927
4.1 916
4.12 967
4.14 889
4.16 862
4.18 820
4.2 883
4.22 867
4.24 842
4.26 874
4.28 866
4.3 855
4.32 802
4.34 805
4.36 809
4.38 796
4.4 837
4.42 728
4.44 768
4.46 775
4.48 794
4.5 776
4.52 764
4.54 724
4.56 727
4.58 725
4.6 743
4.62 700
4.64 721
4.66 686
4.68 723
4.7 751
4.72 696
4.74 704
4.76 704
4.78 737
4.8 741
4.82 722
4.84 704
4.86 718
4.88 714
4.9 710
4.92 684
4.94 716
4.96 718
4.98 719
5 726
5.02 688
5.04 766
5.06 751
5.08 759
5.1 729
5.12 756
5.14 804
5.16 785
5.18 783
5.2 763
5.22 781
5.24 860
5.26 853
5.28 894
5.3 912
5.32 920
5.34 942
5.36 991
5.38 1021
5.4 1039
5.42 1135
5.44 1188
5.46 1185
5.48 1282
5.5 1373
5.52 1535
5.54 1519
5.56 1630
5.58 1508
5.6 1350
5.62 1226
5.64 1218
5.66 1204
5.68 1237
5.7 1176
5.72 1195
5.74 1302
5.76 1306
5.78 1297
5.8 1370
5.82 1509
5.84 1559
5.86 1534
5.88 1623
5.9 1658
5.92 1659
5.94 1415
5.96 1237
5.98 1104
6 960
6.02 851
6.04 752
6.06 757
6.08 670
6.1 667
6.12 656
6.14 609
6.16 610
6.18 598
6.2 615
6.22 648
6.24 612
6.26 590
6.28 597
6.3 556
6.32 553
6.34 602
6.36 566
6.38 555
6.4 558
6.42 575
6.44 591
6.46 524
6.48 573
6.5 587
6.52 560
6.54 590
6.56 634
6.58 580
6.6 592
6.62 584
6.64 601
6.66 566
6.68 584
6.7 588
6.72 624
6.74 592
6.76 623
6.78 612
6.8 623
6.82 641
6.84 559
6.86 613
6.88 616
6.9 613
6.92 601
6.94 594
6.96 653
6.98 567
7 535
7.02 559
7.04 544
7.06 611
7.08 536
7.1 545
7.12 558
7.14 519
7.16 568
7.18 533
7.2 517
7.22 517
7.24 561
7.26 522
7.28 547
7.3 559
7.32 511
7.34 514
7.36 476
7.38 531
7.4 482
7.42 505
7.44 493
7.46 498
7.48 478
7.5 513
7.52 526
7.54 496
7.56 502
7.58 550
7.6 486
7.62 535
7.64 551
7.66 516
7.68 507
7.7 523
7.72 511
7.74 486
7.76 511
7.78 469
7.8 485
7.82 528
7.84 526
7.86 542
7.88 530
7.9 531
7.92 481
7.94 478
7.96 479
7.98 530
8 506
8.02 490
8.04 500
8.06 476
8.08 550
8.1 567
8.12 512
8.14 543
8.16 480
8.18 508
8.2 501
8.22 525
8.24 527
8.26 525
8.28 533
8.3 520
8.32 513
8.34 549
8.36 501
8.38 497
8.4 533
8.42 509
8.44 511
8.46 504
8.48 539
8.5 560
8.52 557
8.54 504
8.56 495
8.58 488
8.6 538
8.62 504
8.64 477
8.66 502
8.68 507
8.7 503
8.72 479
8.74 482
8.76 481
8.78 506
8.8 511
8.82 521
8.84 524
8.86 525
8.88 493
8.9 549
8.92 530
8.94 500
8.96 513
8.98 505
9 557
9.02 518
9.04 508
9.06 587
9.08 584
9.1 531
9.12 536
9.14 552
9.16 551
9.18 571
9.2 540
9.22 598
9.24 574
9.26 601
9.28 680
9.3 655
9.32 674
9.34 707
9.36 731
9.38 779
9.4 825
9.42 877
9.44 933
9.46 1019
9.48 958
9.5 936
9.52 869
9.54 718
9.56 629
9.58 574
9.6 547
9.62 574
9.64 518
9.66 532
9.68 547
9.7 533
9.72 526
9.74 502
9.76 516
9.78 551
9.8 549
9.82 495
9.84 502
9.86 545
9.88 600
9.9 552
9.92 499
9.94 530
9.96 556
9.98 475
10 487
10.02 543
10.04 539
10.06 539
10.08 502
10.1 561
10.12 563
10.14 514
10.16 584
10.18 581
10.2 584
10.22 589
10.24 609
10.26 607
10.28 637
10.3 599
10.32 598
10.34 600
10.36 564
10.38 603
10.4 540
10.42 520
10.44 557
10.46 584
10.48 538
10.5 529
10.52 543
10.54 540
10.56 513
10.58 557
10.6 529
10.62 498
10.64 510
10.66 517
10.68 543
10.7 564
10.72 577
10.74 567
10.76 592
10.78 582
10.8 592
10.82 644
10.84 687
10.86 685
10.88 681
10.9 772
10.92 705
10.94 676
10.96 689
10.98 703
11 686
11.02 680
11.04 759
11.06 734
11.08 754
11.1 779
11.12 735
11.14 686
11.16 599
11.18 588
11.2 551
11.22 563
11.24 569
11.26 509
11.28 580
11.3 532
11.32 562
11.34 534
11.36 507
11.38 516
11.4 516
11.42 558
11.44 530
11.46 573
11.48 553
11.5 577
11.52 563
11.54 598
11.56 581
11.58 593
11.6 568
11.62 615
11.64 577
11.66 596
11.68 570
11.7 569
11.72 552
11.74 565
11.76 539
11.78 515
11.8 543
11.82 509
11.84 544
11.86 506
11.88 551
11.9 524
11.92 507
11.94 572
11.96 515
11.98 541
12 519
12.02 526
12.04 548
12.06 526
12.08 526
12.1 530
12.12 483
12.14 529
12.16 545
12.18 545
12.2 524
12.22 550
12.24 548
12.26 551
12.28 573
12.3 563
12.32 574
12.34 545
12.36 564
12.38 566
12.4 572
12.42 554
12.44 580
12.46 535
12.48 543
12.5 571
12.52 564
12.54 514
12.56 551
12.58 527
12.6 568
12.62 533
12.64 525
12.66 528
12.68 495
12.7 540
12.72 517
12.74 543
12.76 505
12.78 535
12.8 553
12.82 577
12.84 578
12.86 535
12.88 507
12.9 537
12.92 520
12.94 560
12.96 544
12.98 598
13 547
13.02 570
13.04 502
13.06 581
13.08 568
13.1 527
13.12 523
13.14 557
13.16 536
13.18 593
13.2 544
13.22 572
13.24 555
13.26 559
13.28 521
13.3 583
13.32 546
13.34 565
13.36 599
13.38 542
13.4 550
13.42 598
13.44 546
13.46 573
13.48 558
13.5 593
13.52 573
13.54 580
13.56 585
13.58 628
13.6 559
13.62 644
13.64 591
13.66 555
13.68 608
13.7 533
13.72 552
13.74 573
13.76 585
13.78 574
13.8 578
13.82 560
13.84 614
13.86 603
13.88 584
13.9 614
13.92 569
13.94 550
13.96 589
13.98 602
14 571
14.02 591
14.04 561
14.06 586
14.08 578
14.1 563
14.12 586
14.14 621
14.16 587
14.18 626
14.2 610
14.22 638
14.24 616
14.26 637
14.28 659
14.3 633
14.32 635
14.34 662
14.36 668
14.38 668
14.4 674
14.42 629
14.44 665
14.46 655
14.48 675
14.5 652
14.52 685
14.54 666
14.56 650
14.58 642
14.6 680
14.62 635
14.64 626
14.66 644
14.68 614
14.7 609
14.72 683
14.74 655
14.76 629
14.78 637
14.8 629
14.82 657
14.84 699
14.86 628
14.88 701
14.9 657
14.92 676
14.94 644
14.96 690
14.98 676
15 718
15.02 679
15.04 716
15.06 700
15.08 670
15.1 680
15.12 675
15.14 664
15.16 656
15.18 713
15.2 735
15.22 762
15.24 700
15.26 705
15.28 712
15.3 698
15.32 682
15.34 697
15.36 716
15.38 761
15.4 747
15.42 733
15.44 690
15.46 672
15.48 722
15.5 725
15.52 696
15.54 680
15.56 765
15.58 744
15.6 737
15.62 738
15.64 705
15.66 737
15.68 723
15.7 737
15.72 679
15.74 710
15.76 706
15.78 719
15.8 706
15.82 700
15.84 783
15.86 742
15.88 726
15.9 758
15.92 712
15.94 750
15.96 724
15.98 760
16 763
16.02 798
16.04 807
16.06 748
16.08 794
16.1 776
16.12 750
16.14 805
16.16 840
16.18 776
16.2 796
16.22 798
16.24 778
16.26 761
16.28 795
16.3 842
16.32 778
16.34 813
16.36 851
16.38 848
16.4 856
16.42 831
16.44 810
16.46 830
16.48 880
16.5 811
16.52 863
16.54 805
16.56 837
16.58 836
16.6 848
16.62 848
16.64 882
16.66 862
16.68 872
16.7 909
16.72 857
16.74 827
16.76 848
16.78 856
16.8 885
16.82 878
16.84 898
16.86 929
16.88 913
16.9 890
16.92 897
16.94 916
16.96 888
16.98 961
17 990
17.02 975
17.04 947
17.06 1002
17.08 933
17.1 917
17.12 963
17.14 956
17.16 973
17.18 955
17.2 957
17.22 955
17.24 940
17.26 948
17.28 970
17.3 935
17.32 971
17.34 971
17.36 949
17.38 985
17.4 921
17.42 977
17.44 968
17.46 968
17.48 950
17.5 973
17.52 1032
17.54 994
17.56 976
17.58 976
17.6 995
17.62 1000
17.64 1015
17.66 944
17.68 988
17.7 1005
17.72 998
17.74 992
17.76 1002
17.78 991
17.8 962
17.82 1039
17.84 1005
17.86 1040
17.88 998
17.9 1055
17.92 1002
17.94 995
17.96 1110
17.98 1079
18 1092
18.02 1046
18.04 1041
18.06 1062
18.08 1010
18.1 1033
18.12 1048
18.14 1058
18.16 1081
18.18 1117
18.2 1132
18.22 1097
18.24 1057
18.26 1089
18.28 1108
18.3 1073
18.32 1130
18.34 1080
18.36 1048
18.38 1037
18.4 1106
18.42 1137
18.44 1163
18.46 1028
18.48 1144
18.5 1080
18.52 1156
18.54 1172
18.56 1187
18.58 1163
18.6 1176
18.62 1183
18.64 1129
18.66 1133
18.68 1152
18.7 1184
18.72 1203
18.74 1211
18.76 1218
18.78 1201
18.8 1255
18.82 1184
18.84 1170
18.86 1168
18.88 1216
18.9 1214
18.92 1237
18.94 1226
18.96 1247
18.98 1252
19 1253
19.02 1313
19.04 1243
19.06 1273
19.08 1324
19.1 1211
19.12 1282
19.14 1308
19.16 1346
19.18 1414
19.2 1317
19.22 1363
19.24 1355
19.26 1360
19.28 1299
19.3 1350
19.32 1301
19.34 1368
19.36 1338
19.38 1319
19.4 1314
19.42 1339
19.44 1375
19.46 1296
19.48 1342
19.5 1395
19.52 1406
19.54 1389
19.56 1407
19.58 1521
19.6 1488
19.62 1484
19.64 1471
19.66 1454
19.68 1426
19.7 1468
19.72 1446
19.74 1443
19.76 1399
19.78 1363
19.8 1346
19.82 1358
19.84 1416
19.86 1352
19.88 1334
19.9 1438
19.92 1421
19.94 1408
19.96 1410
19.98 1333
20 1389