File: xrd-UiO-67/pxrddata/44-11.ASC
3 3246
3.02 3099
3.04 2869
3.06 2765
3.08 2642
3.1 2583
3.12 2419
3.14 2399
3.16 2330
3.18 2347
3.2 2313
3.22 2267
3.24 2260
3.26 2253
3.28 2278
3.3 2148
3.32 2043
3.34 2101
3.36 2069
3.38 1975
3.4 1946
3.42 1899
3.44 1888
3.46 1858
3.48 1878
3.5 1827
3.52 1783
3.54 1789
3.56 1752
3.58 1682
3.6 1657
3.62 1715
3.64 1643
3.66 1583
3.68 1604
3.7 1555
3.72 1585
3.74 1553
3.76 1480
3.78 1454
3.8 1430
3.82 1434
3.84 1410
3.86 1384
3.88 1338
3.9 1353
3.92 1323
3.94 1324
3.96 1361
3.98 1356
4 1307
4.02 1204
4.04 1218
4.06 1249
4.08 1217
4.1 1226
4.12 1226
4.14 1230
4.16 1198
4.18 1239
4.2 1180
4.22 1145
4.24 1132
4.26 1095
4.28 1080
4.3 1137
4.32 1104
4.34 1052
4.36 1106
4.38 1058
4.4 1058
4.42 983
4.44 1018
4.46 1033
4.48 1009
4.5 1040
4.52 931
4.54 978
4.56 1004
4.58 1002
4.6 1002
4.62 966
4.64 957
4.66 948
4.68 994
4.7 1021
4.72 959
4.74 937
4.76 909
4.78 920
4.8 903
4.82 938
4.84 898
4.86 955
4.88 943
4.9 888
4.92 940
4.94 927
4.96 931
4.98 886
5 923
5.02 968
5.04 940
5.06 974
5.08 946
5.1 955
5.12 960
5.14 998
5.16 995
5.18 1002
5.2 1000
5.22 1049
5.24 1145
5.26 1145
5.28 1061
5.3 1066
5.32 1161
5.34 1228
5.36 1273
5.38 1405
5.4 1482
5.42 1649
5.44 1754
5.46 1866
5.48 1752
5.5 1603
5.52 1413
5.54 1335
5.56 1263
5.58 1314
5.6 1280
5.62 1207
5.64 1228
5.66 1232
5.68 1231
5.7 1254
5.72 1335
5.74 1339
5.76 1398
5.78 1241
5.8 1226
5.82 1185
5.84 1076
5.86 1004
5.88 885
5.9 868
5.92 860
5.94 823
5.96 810
5.98 800
6 759
6.02 778
6.04 753
6.06 751
6.08 736
6.1 728
6.12 679
6.14 699
6.16 678
6.18 712
6.2 676
6.22 702
6.24 673
6.26 706
6.28 666
6.3 664
6.32 645
6.34 650
6.36 684
6.38 719
6.4 630
6.42 712
6.44 642
6.46 630
6.48 638
6.5 645
6.52 682
6.54 702
6.56 662
6.58 640
6.6 639
6.62 670
6.64 669
6.66 719
6.68 656
6.7 648
6.72 622
6.74 697
6.76 683
6.78 693
6.8 680
6.82 651
6.84 644
6.86 650
6.88 627
6.9 611
6.92 620
6.94 590
6.96 622
6.98 607
7 626
7.02 629
7.04 593
7.06 591
7.08 613
7.1 604
7.12 622
7.14 602
7.16 639
7.18 595
7.2 598
7.22 601
7.24 581
7.26 632
7.28 601
7.3 577
7.32 600
7.34 613
7.36 618
7.38 606
7.4 594
7.42 593
7.44 628
7.46 588
7.48 576
7.5 610
7.52 606
7.54 570
7.56 583
7.58 600
7.6 569
7.62 606
7.64 573
7.66 594
7.68 587
7.7 559
7.72 542
7.74 570
7.76 578
7.78 617
7.8 622
7.82 607
7.84 606
7.86 569
7.88 579
7.9 639
7.92 639
7.94 629
7.96 587
7.98 605
8 620
8.02 578
8.04 569
8.06 619
8.08 593
8.1 568
8.12 600
8.14 594
8.16 561
8.18 614
8.2 604
8.22 604
8.24 546
8.26 582
8.28 567
8.3 582
8.32 567
8.34 574
8.36 558
8.38 588
8.4 572
8.42 558
8.44 523
8.46 594
8.48 595
8.5 587
8.52 527
8.54 603
8.56 610
8.58 554
8.6 588
8.62 556
8.64 548
8.66 574
8.68 564
8.7 549
8.72 606
8.74 559
8.76 560
8.78 582
8.8 613
8.82 565
8.84 546
8.86 525
8.88 594
8.9 615
8.92 553
8.94 605
8.96 586
8.98 606
9 554
9.02 576
9.04 609
9.06 625
9.08 623
9.1 619
9.12 633
9.14 633
9.16 606
9.18 667
9.2 644
9.22 700
9.24 745
9.26 783
9.28 809
9.3 776
9.32 932
9.34 977
9.36 1085
9.38 1077
9.4 925
9.42 823
9.44 725
9.46 613
9.48 595
9.5 580
9.52 553
9.54 582
9.56 557
9.58 553
9.6 558
9.62 560
9.64 551
9.66 548
9.68 559
9.7 569
9.72 537
9.74 564
9.76 577
9.78 555
9.8 596
9.82 584
9.84 539
9.86 562
9.88 562
9.9 571
9.92 572
9.94 501
9.96 558
9.98 593
10 572
10.02 583
10.04 614
10.06 546
10.08 549
10.1 638
10.12 605
10.14 547
10.16 584
10.18 579
10.2 590
10.22 606
10.24 608
10.26 570
10.28 603
10.3 601
10.32 607
10.34 550
10.36 568
10.38 580
10.4 548
10.42 554
10.44 547
10.46 574
10.48 569
10.5 571
10.52 571
10.54 546
10.56 610
10.58 548
10.6 534
10.62 587
10.64 540
10.66 585
10.68 643
10.7 637
10.72 652
10.74 665
10.76 695
10.78 713
10.8 704
10.82 726
10.84 742
10.86 700
10.88 649
10.9 704
10.92 688
10.94 720
10.96 692
10.98 687
11 666
11.02 635
11.04 675
11.06 644
11.08 573
11.1 565
11.12 578
11.14 601
11.16 564
11.18 564
11.2 542
11.22 544
11.24 534
11.26 563
11.28 526
11.3 540
11.32 524
11.34 503
11.36 549
11.38 554
11.4 559
11.42 549
11.44 590
11.46 597
11.48 574
11.5 536
11.52 521
11.54 564
11.56 583
11.58 587
11.6 554
11.62 592
11.64 530
11.66 591
11.68 545
11.7 603
11.72 516
11.74 586
11.76 519
11.78 526
11.8 537
11.82 561
11.84 568
11.86 560
11.88 549
11.9 545
11.92 528
11.94 550
11.96 550
11.98 585
12 552
12.02 587
12.04 518
12.06 563
12.08 578
12.1 603
12.12 550
12.14 597
12.16 576
12.18 579
12.2 580
12.22 579
12.24 574
12.26 612
12.28 566
12.3 561
12.32 585
12.34 581
12.36 575
12.38 558
12.4 563
12.42 547
12.44 509
12.46 547
12.48 547
12.5 541
12.52 564
12.54 564
12.56 551
12.58 571
12.6 522
12.62 546
12.64 565
12.66 577
12.68 554
12.7 527
12.72 532
12.74 527
12.76 535
12.78 533
12.8 575
12.82 557
12.84 560
12.86 541
12.88 580
12.9 584
12.92 554
12.94 536
12.96 577
12.98 575
13 531
13.02 534
13.04 585
13.06 599
13.08 544
13.1 556
13.12 590
13.14 573
13.16 579
13.18 533
13.2 607
13.22 602
13.24 618
13.26 625
13.28 558
13.3 552
13.32 574
13.34 567
13.36 612
13.38 599
13.4 565
13.42 642
13.44 619
13.46 621
13.48 619
13.5 577
13.52 611
13.54 607
13.56 607
13.58 595
13.6 593
13.62 573
13.64 589
13.66 593
13.68 610
13.7 537
13.72 607
13.74 582
13.76 588
13.78 602
13.8 580
13.82 626
13.84 610
13.86 605
13.88 611
13.9 611
13.92 591
13.94 598
13.96 617
13.98 608
14 619
14.02 580
14.04 617
14.06 599
14.08 585
14.1 613
14.12 600
14.14 607
14.16 634
14.18 605
14.2 626
14.22 635
14.24 673
14.26 621
14.28 620
14.3 644
14.32 615
14.34 623
14.36 585
14.38 651
14.4 657
14.42 654
14.44 626
14.46 647
14.48 642
14.5 658
14.52 607
14.54 599
14.56 607
14.58 639
14.6 621
14.62 656
14.64 672
14.66 636
14.68 656
14.7 665
14.72 616
14.74 682
14.76 619
14.78 663
14.8 679
14.82 708
14.84 722
14.86 670
14.88 737
14.9 636
14.92 673
14.94 694
14.96 667
14.98 648
15 662
15.02 656
15.04 601
15.06 683
15.08 679
15.1 671
15.12 677
15.14 651
15.16 649
15.18 640
15.2 625
15.22 679
15.24 682
15.26 684
15.28 714
15.3 672
15.32 671
15.34 671
15.36 644
15.38 717
15.4 688
15.42 732
15.44 693
15.46 626
15.48 684
15.5 736
15.52 743
15.54 663
15.56 686
15.58 695
15.6 694
15.62 700
15.64 703
15.66 725
15.68 663
15.7 739
15.72 777
15.74 711
15.76 737
15.78 740
15.8 669
15.82 742
15.84 757
15.86 689
15.88 716
15.9 750
15.92 717
15.94 706
15.96 684
15.98 765
16 734
16.02 696
16.04 807
16.06 790
16.08 765
16.1 754
16.12 738
16.14 753
16.16 790
16.18 782
16.2 744
16.22 802
16.24 774
16.26 808
16.28 797
16.3 783
16.32 743
16.34 776
16.36 783
16.38 781
16.4 777
16.42 794
16.44 804
16.46 883
16.48 767
16.5 831
16.52 780
16.54 740
16.56 822
16.58 784
16.6 803
16.62 834
16.64 844
16.66 783
16.68 834
16.7 863
16.72 837
16.74 873
16.76 891
16.78 916
16.8 880
16.82 897
16.84 933
16.86 943
16.88 1030
16.9 1013
16.92 1094
16.94 1153
16.96 1276
16.98 1392
17 1527
17.02 1612
17.04 1602
17.06 1480
17.08 1338
17.1 1156
17.12 1039
17.14 953
17.16 946
17.18 924
17.2 888
17.22 926
17.24 932
17.26 898
17.28 934
17.3 953
17.32 888
17.34 918
17.36 909
17.38 907
17.4 892
17.42 875
17.44 885
17.46 904
17.48 886
17.5 942
17.52 931
17.54 949
17.56 907
17.58 894
17.6 943
17.62 969
17.64 905
17.66 929
17.68 960
17.7 879
17.72 962
17.74 880
17.76 946
17.78 930
17.8 998
17.82 975
17.84 984
17.86 961
17.88 961
17.9 992
17.92 973
17.94 982
17.96 958
17.98 968
18 971
18.02 991
18.04 996
18.06 961
18.08 999
18.1 1012
18.12 995
18.14 973
18.16 977
18.18 956
18.2 1004
18.22 992
18.24 988
18.26 1012
18.28 991
18.3 983
18.32 1004
18.34 1053
18.36 942
18.38 1027
18.4 1061
18.42 1044
18.44 1029
18.46 1068
18.48 1025
18.5 1075
18.52 1024
18.54 1057
18.56 1068
18.58 1055
18.6 1084
18.62 1044
18.64 1085
18.66 1141
18.68 1059
18.7 1127
18.72 1100
18.74 1119
18.76 1151
18.78 1096
18.8 1174
18.82 1075
18.84 1091
18.86 1109
18.88 1134
18.9 1092
18.92 1108
18.94 1112
18.96 1110
18.98 1150
19 1136
19.02 1192
19.04 1193
19.06 1120
19.08 1137
19.1 1138
19.12 1116
19.14 1188
19.16 1182
19.18 1164
19.2 1167
19.22 1177
19.24 1177
19.26 1211
19.28 1139
19.3 1211
19.32 1127
19.34 1176
19.36 1170
19.38 1204
19.4 1208
19.42 1203
19.44 1258
19.46 1316
19.48 1326
19.5 1310
19.52 1309
19.54 1269
19.56 1307
19.58 1332
19.6 1245
19.62 1321
19.64 1208
19.66 1176
19.68 1281
19.7 1177
19.72 1258
19.74 1240
19.76 1253
19.78 1288
19.8 1245
19.82 1279
19.84 1296
19.86 1311
19.88 1258
19.9 1260
19.92 1292
19.94 1219
19.96 1236
19.98 1232
20 1292