File: xrd-UiO-67/pxrddata/44-13.ASC
3 2636
3.02 2451
3.04 2334
3.06 2165
3.08 2099
3.1 1971
3.12 1963
3.14 1940
3.16 1887
3.18 1827
3.2 1775
3.22 1785
3.24 1834
3.26 1788
3.28 1739
3.3 1823
3.32 1754
3.34 1730
3.36 1677
3.38 1673
3.4 1604
3.42 1636
3.44 1600
3.46 1642
3.48 1654
3.5 1637
3.52 1556
3.54 1541
3.56 1629
3.58 1580
3.6 1603
3.62 1539
3.64 1539
3.66 1503
3.68 1530
3.7 1484
3.72 1404
3.74 1450
3.76 1526
3.78 1566
3.8 1492
3.82 1483
3.84 1406
3.86 1516
3.88 1452
3.9 1523
3.92 1465
3.94 1423
3.96 1440
3.98 1385
4 1369
4.02 1412
4.04 1473
4.06 1416
4.08 1443
4.1 1414
4.12 1456
4.14 1386
4.16 1393
4.18 1370
4.2 1363
4.22 1373
4.24 1389
4.26 1401
4.28 1377
4.3 1319
4.32 1405
4.34 1356
4.36 1374
4.38 1392
4.4 1365
4.42 1380
4.44 1421
4.46 1379
4.48 1412
4.5 1355
4.52 1373
4.54 1404
4.56 1406
4.58 1394
4.6 1428
4.62 1390
4.64 1424
4.66 1394
4.68 1395
4.7 1422
4.72 1423
4.74 1477
4.76 1489
4.78 1452
4.8 1409
4.82 1423
4.84 1488
4.86 1472
4.88 1489
4.9 1493
4.92 1511
4.94 1517
4.96 1577
4.98 1478
5 1458
5.02 1624
5.04 1614
5.06 1602
5.08 1614
5.1 1690
5.12 1716
5.14 1747
5.16 1787
5.18 1812
5.2 1836
5.22 1834
5.24 2038
5.26 2105
5.28 2109
5.3 2237
5.32 2376
5.34 2530
5.36 2569
5.38 2777
5.4 3073
5.42 3420
5.44 3652
5.46 3922
5.48 3701
5.5 3244
5.52 2952
5.54 2608
5.56 2494
5.58 2435
5.6 2353
5.62 2284
5.64 2309
5.66 2400
5.68 2326
5.7 2382
5.72 2370
5.74 2404
5.76 2327
5.78 2286
5.8 2128
5.82 2070
5.84 1866
5.86 1720
5.88 1633
5.9 1452
5.92 1418
5.94 1397
5.96 1265
5.98 1175
6 1183
6.02 1111
6.04 1072
6.06 1052
6.08 1085
6.1 1040
6.12 1046
6.14 1009
6.16 1049
6.18 1099
6.2 996
6.22 974
6.24 985
6.26 973
6.28 971
6.3 994
6.32 969
6.34 954
6.36 896
6.38 907
6.4 931
6.42 944
6.44 973
6.46 922
6.48 899
6.5 934
6.52 953
6.54 930
6.56 945
6.58 880
6.6 905
6.62 925
6.64 925
6.66 950
6.68 995
6.7 963
6.72 873
6.74 951
6.76 943
6.78 979
6.8 933
6.82 972
6.84 922
6.86 922
6.88 928
6.9 840
6.92 908
6.94 870
6.96 873
6.98 792
7 842
7.02 865
7.04 782
7.06 830
7.08 816
7.1 850
7.12 860
7.14 814
7.16 801
7.18 817
7.2 794
7.22 829
7.24 813
7.26 770
7.28 823
7.3 852
7.32 820
7.34 836
7.36 803
7.38 816
7.4 739
7.42 830
7.44 815
7.46 804
7.48 788
7.5 750
7.52 779
7.54 765
7.56 830
7.58 811
7.6 835
7.62 813
7.64 784
7.66 784
7.68 790
7.7 794
7.72 817
7.74 839
7.76 826
7.78 854
7.8 792
7.82 797
7.84 787
7.86 794
7.88 793
7.9 818
7.92 784
7.94 785
7.96 784
7.98 792
8 754
8.02 764
8.04 863
8.06 822
8.08 805
8.1 780
8.12 800
8.14 738
8.16 809
8.18 838
8.2 785
8.22 852
8.24 826
8.26 801
8.28 835
8.3 832
8.32 785
8.34 851
8.36 766
8.38 814
8.4 764
8.42 778
8.44 835
8.46 786
8.48 812
8.5 763
8.52 759
8.54 795
8.56 759
8.58 826
8.6 760
8.62 791
8.64 788
8.66 779
8.68 799
8.7 805
8.72 760
8.74 790
8.76 789
8.78 781
8.8 810
8.82 811
8.84 829
8.86 878
8.88 835
8.9 845
8.92 874
8.94 861
8.96 878
8.98 882
9 877
9.02 878
9.04 852
9.06 877
9.08 970
9.1 919
9.12 933
9.14 987
9.16 981
9.18 1007
9.2 1035
9.22 1060
9.24 1111
9.26 1177
9.28 1312
9.3 1454
9.32 1602
9.34 1854
9.36 1940
9.38 1849
9.4 1649
9.42 1346
9.44 1065
9.46 1027
9.48 920
9.5 895
9.52 925
9.54 868
9.56 870
9.58 891
9.6 890
9.62 796
9.64 777
9.66 823
9.68 750
9.7 834
9.72 802
9.74 836
9.76 824
9.78 840
9.8 845
9.82 857
9.84 834
9.86 899
9.88 854
9.9 852
9.92 819
9.94 888
9.96 913
9.98 926
10 848
10.02 810
10.04 919
10.06 849
10.08 899
10.1 940
10.12 819
10.14 876
10.16 937
10.18 888
10.2 899
10.22 922
10.24 897
10.26 829
10.28 859
10.3 879
10.32 843
10.34 840
10.36 797
10.38 861
10.4 851
10.42 839
10.44 841
10.46 760
10.48 847
10.5 843
10.52 836
10.54 876
10.56 883
10.58 881
10.6 893
10.62 966
10.64 928
10.66 967
10.68 986
10.7 993
10.72 1121
10.74 1052
10.76 1146
10.78 1255
10.8 1314
10.82 1328
10.84 1235
10.86 1188
10.88 1173
10.9 1160
10.92 1158
10.94 1166
10.96 1149
10.98 1176
11 1110
11.02 1101
11.04 1005
11.06 1009
11.08 924
11.1 882
11.12 865
11.14 849
11.16 862
11.18 811
11.2 841
11.22 826
11.24 820
11.26 808
11.28 810
11.3 859
11.32 805
11.34 822
11.36 851
11.38 873
11.4 843
11.42 846
11.44 845
11.46 883
11.48 920
11.5 843
11.52 919
11.54 793
11.56 874
11.58 856
11.6 901
11.62 786
11.64 872
11.66 836
11.68 833
11.7 871
11.72 850
11.74 810
11.76 815
11.78 847
11.8 832
11.82 857
11.84 790
11.86 838
11.88 843
11.9 843
11.92 867
11.94 790
11.96 800
11.98 846
12 809
12.02 858
12.04 831
12.06 858
12.08 882
12.1 820
12.12 855
12.14 847
12.16 917
12.18 889
12.2 917
12.22 882
12.24 875
12.26 963
12.28 950
12.3 920
12.32 920
12.34 902
12.36 874
12.38 873
12.4 856
12.42 833
12.44 928
12.46 868
12.48 882
12.5 831
12.52 877
12.54 867
12.56 895
12.58 866
12.6 884
12.62 898
12.64 871
12.66 856
12.68 877
12.7 852
12.72 893
12.74 891
12.76 870
12.78 870
12.8 892
12.82 896
12.84 867
12.86 890
12.88 937
12.9 920
12.92 898
12.94 856
12.96 833
12.98 860
13 915
13.02 913
13.04 903
13.06 877
13.08 862
13.1 899
13.12 923
13.14 849
13.16 855
13.18 957
13.2 960
13.22 879
13.24 910
13.26 917
13.28 910
13.3 933
13.32 924
13.34 940
13.36 947
13.38 902
13.4 952
13.42 932
13.44 882
13.46 908
13.48 933
13.5 917
13.52 893
13.54 913
13.56 906
13.58 943
13.6 937
13.62 931
13.64 922
13.66 933
13.68 924
13.7 872
13.72 941
13.74 940
13.76 877
13.78 862
13.8 902
13.82 924
13.84 905
13.86 984
13.88 939
13.9 934
13.92 894
13.94 890
13.96 945
13.98 934
14 885
14.02 960
14.04 924
14.06 925
14.08 912
14.1 877
14.12 949
14.14 940
14.16 955
14.18 933
14.2 947
14.22 990
14.24 997
14.26 975
14.28 981
14.3 1007
14.32 949
14.34 952
14.36 1027
14.38 973
14.4 974
14.42 936
14.44 980
14.46 928
14.48 942
14.5 962
14.52 1018
14.54 922
14.56 979
14.58 987
14.6 973
14.62 974
14.64 983
14.66 923
14.68 975
14.7 1019
14.72 1027
14.74 990
14.76 972
14.78 951
14.8 1036
14.82 1006
14.84 989
14.86 1059
14.88 1015
14.9 1006
14.92 1003
14.94 974
14.96 1016
14.98 1022
15 997
15.02 994
15.04 985
15.06 1053
15.08 968
15.1 986
15.12 996
15.14 987
15.16 995
15.18 987
15.2 1003
15.22 968
15.24 1008
15.26 1013
15.28 1016
15.3 962
15.32 1014
15.34 1037
15.36 955
15.38 1013
15.4 1056
15.42 985
15.44 1009
15.46 1024
15.48 1051
15.5 1040
15.52 986
15.54 1050
15.56 997
15.58 1065
15.6 1056
15.62 1088
15.64 1044
15.66 1016
15.68 1015
15.7 1069
15.72 1028
15.74 1001
15.76 1002
15.78 1047
15.8 1062
15.82 1113
15.84 1047
15.86 1105
15.88 1030
15.9 1023
15.92 1139
15.94 1083
15.96 1100
15.98 1109
16 1122
16.02 1081
16.04 1110
16.06 1113
16.08 1078
16.1 1100
16.12 1119
16.14 1147
16.16 1106
16.18 1134
16.2 1049
16.22 1124
16.24 1175
16.26 1097
16.28 1130
16.3 1160
16.32 1099
16.34 1081
16.36 1175
16.38 1163
16.4 1161
16.42 1185
16.44 1189
16.46 1147
16.48 1211
16.5 1137
16.52 1199
16.54 1190
16.56 1245
16.58 1199
16.6 1210
16.62 1204
16.64 1206
16.66 1194
16.68 1230
16.7 1350
16.72 1223
16.74 1276
16.76 1325
16.78 1322
16.8 1362
16.82 1423
16.84 1440
16.86 1460
16.88 1607
16.9 1764
16.92 1941
16.94 2207
16.96 2409
16.98 2759
17 2952
17.02 2809
17.04 2563
17.06 2147
17.08 1839
17.1 1559
17.12 1420
17.14 1308
17.16 1327
17.18 1273
17.2 1292
17.22 1288
17.24 1291
17.26 1277
17.28 1286
17.3 1270
17.32 1256
17.34 1300
17.36 1373
17.38 1329
17.4 1323
17.42 1340
17.44 1275
17.46 1313
17.48 1272
17.5 1330
17.52 1318
17.54 1327
17.56 1316
17.58 1339
17.6 1343
17.62 1316
17.64 1325
17.66 1318
17.68 1407
17.7 1316
17.72 1337
17.74 1381
17.76 1321
17.78 1358
17.8 1377
17.82 1282
17.84 1346
17.86 1342
17.88 1335
17.9 1359
17.92 1443
17.94 1408
17.96 1355
17.98 1315
18 1442
18.02 1388
18.04 1307
18.06 1359
18.08 1388
18.1 1353
18.12 1374
18.14 1398
18.16 1438
18.18 1377
18.2 1470
18.22 1444
18.24 1382
18.26 1333
18.28 1380
18.3 1450
18.32 1506
18.34 1408
18.36 1450
18.38 1415
18.4 1429
18.42 1460
18.44 1525
18.46 1466
18.48 1457
18.5 1420
18.52 1517
18.54 1479
18.56 1480
18.58 1497
18.6 1500
18.62 1446
18.64 1439
18.66 1512
18.68 1532
18.7 1508
18.72 1555
18.74 1535
18.76 1595
18.78 1538
18.8 1501
18.82 1550
18.84 1504
18.86 1551
18.88 1491
18.9 1556
18.92 1582
18.94 1577
18.96 1528
18.98 1563
19 1589
19.02 1574
19.04 1557
19.06 1575
19.08 1570
19.1 1669
19.12 1575
19.14 1676
19.16 1597
19.18 1614
19.2 1601
19.22 1649
19.24 1640
19.26 1657
19.28 1592
19.3 1580
19.32 1608
19.34 1596
19.36 1701
19.38 1646
19.4 1672
19.42 1715
19.44 1703
19.46 1707
19.48 1890
19.5 1846
19.52 1791
19.54 1826
19.56 1759
19.58 1775
19.6 1770
19.62 1813
19.64 1731
19.66 1751
19.68 1718
19.7 1645
19.72 1635
19.74 1672
19.76 1750
19.78 1714
19.8 1695
19.82 1672
19.84 1733
19.86 1658
19.88 1713
19.9 1622
19.92 1715
19.94 1734
19.96 1708
19.98 1698
20 1694