File: xrd-UiO-67/pxrddata/45-1.ASC
3 2278
3.02 2120
3.04 2012
3.06 1865
3.08 1834
3.1 1662
3.12 1574
3.14 1598
3.16 1563
3.18 1445
3.2 1493
3.22 1497
3.24 1403
3.26 1445
3.28 1361
3.3 1365
3.32 1308
3.34 1329
3.36 1366
3.38 1332
3.4 1280
3.42 1216
3.44 1192
3.46 1297
3.48 1282
3.5 1241
3.52 1176
3.54 1194
3.56 1178
3.58 1157
3.6 1162
3.62 1119
3.64 1127
3.66 1119
3.68 1118
3.7 1120
3.72 1064
3.74 1039
3.76 1054
3.78 1086
3.8 1052
3.82 1081
3.84 1063
3.86 1034
3.88 1027
3.9 940
3.92 1012
3.94 999
3.96 1009
3.98 983
4 1014
4.02 994
4.04 936
4.06 990
4.08 962
4.1 985
4.12 938
4.14 968
4.16 1001
4.18 938
4.2 935
4.22 955
4.24 872
4.26 871
4.28 853
4.3 908
4.32 851
4.34 831
4.36 801
4.38 833
4.4 818
4.42 837
4.44 801
4.46 866
4.48 821
4.5 842
4.52 781
4.54 832
4.56 784
4.58 801
4.6 794
4.62 821
4.64 822
4.66 783
4.68 742
4.7 745
4.72 706
4.74 777
4.76 758
4.78 794
4.8 736
4.82 801
4.84 744
4.86 729
4.88 738
4.9 699
4.92 713
4.94 776
4.96 681
4.98 778
5 718
5.02 799
5.04 731
5.06 769
5.08 765
5.1 774
5.12 761
5.14 773
5.16 778
5.18 784
5.2 771
5.22 744
5.24 740
5.26 803
5.28 844
5.3 869
5.32 849
5.34 776
5.36 829
5.38 824
5.4 836
5.42 894
5.44 881
5.46 917
5.48 929
5.5 960
5.52 910
5.54 927
5.56 973
5.58 955
5.6 997
5.62 1074
5.64 1070
5.66 1192
5.68 1262
5.7 1251
5.72 1445
5.74 1583
5.76 1787
5.78 2010
5.8 2172
5.82 2310
5.84 2233
5.86 1787
5.88 1318
5.9 993
5.92 815
5.94 838
5.96 745
5.98 710
6 732
6.02 714
6.04 696
6.06 645
6.08 691
6.1 700
6.12 733
6.14 660
6.16 669
6.18 677
6.2 651
6.22 682
6.24 646
6.26 674
6.28 693
6.3 726
6.32 681
6.34 716
6.36 709
6.38 702
6.4 779
6.42 706
6.44 730
6.46 783
6.48 787
6.5 828
6.52 844
6.54 849
6.56 855
6.58 893
6.6 871
6.62 929
6.64 948
6.66 989
6.68 1059
6.7 976
6.72 1003
6.74 1019
6.76 985
6.78 968
6.8 924
6.82 778
6.84 756
6.86 713
6.88 687
6.9 626
6.92 645
6.94 659
6.96 659
6.98 612
7 584
7.02 581
7.04 632
7.06 581
7.08 666
7.1 609
7.12 619
7.14 566
7.16 588
7.18 588
7.2 606
7.22 642
7.24 640
7.26 578
7.28 576
7.3 627
7.32 581
7.34 595
7.36 563
7.38 581
7.4 550
7.42 565
7.44 559
7.46 575
7.48 576
7.5 576
7.52 556
7.54 610
7.56 633
7.58 567
7.6 576
7.62 580
7.64 580
7.66 589
7.68 565
7.7 607
7.72 572
7.74 583
7.76 548
7.78 605
7.8 516
7.82 567
7.84 573
7.86 583
7.88 567
7.9 574
7.92 575
7.94 589
7.96 548
7.98 585
8 550
8.02 560
8.04 596
8.06 585
8.08 551
8.1 587
8.12 582
8.14 584
8.16 597
8.18 552
8.2 605
8.22 578
8.24 549
8.26 575
8.28 590
8.3 542
8.32 589
8.34 572
8.36 615
8.38 589
8.4 544
8.42 605
8.44 560
8.46 543
8.48 606
8.5 547
8.52 543
8.54 582
8.56 542
8.58 593
8.6 538
8.62 596
8.64 591
8.66 598
8.68 585
8.7 579
8.72 595
8.74 593
8.76 552
8.78 570
8.8 506
8.82 594
8.84 583
8.86 565
8.88 574
8.9 527
8.92 602
8.94 550
8.96 585
8.98 596
9 514
9.02 575
9.04 567
9.06 598
9.08 590
9.1 626
9.12 604
9.14 582
9.16 619
9.18 604
9.2 618
9.22 675
9.24 651
9.26 752
9.28 743
9.3 778
9.32 853
9.34 900
9.36 979
9.38 1033
9.4 1062
9.42 1077
9.44 953
9.46 884
9.48 803
9.5 673
9.52 655
9.54 599
9.56 632
9.58 662
9.6 559
9.62 572
9.64 536
9.66 575
9.68 559
9.7 562
9.72 506
9.74 550
9.76 568
9.78 623
9.8 504
9.82 545
9.84 559
9.86 578
9.88 564
9.9 573
9.92 553
9.94 599
9.96 578
9.98 580
10 546
10.02 543
10.04 580
10.06 512
10.08 545
10.1 554
10.12 559
10.14 554
10.16 597
10.18 591
10.2 630
10.22 609
10.24 582
10.26 580
10.28 594
10.3 539
10.32 535
10.34 550
10.36 540
10.38 490
10.4 543
10.42 554
10.44 560
10.46 523
10.48 499
10.5 538
10.52 597
10.54 571
10.56 518
10.58 611
10.6 563
10.62 568
10.64 614
10.66 556
10.68 559
10.7 634
10.72 593
10.74 596
10.76 628
10.78 620
10.8 613
10.82 635
10.84 707
10.86 703
10.88 720
10.9 697
10.92 787
10.94 763
10.96 743
10.98 835
11 816
11.02 837
11.04 777
11.06 830
11.08 811
11.1 783
11.12 750
11.14 735
11.16 721
11.18 712
11.2 671
11.22 614
11.24 601
11.26 588
11.28 663
11.3 651
11.32 629
11.34 613
11.36 596
11.38 650
11.4 614
11.42 661
11.44 660
11.46 621
11.48 727
11.5 685
11.52 708
11.54 762
11.56 747
11.58 696
11.6 639
11.62 670
11.64 606
11.66 669
11.68 592
11.7 592
11.72 594
11.74 509
11.76 578
11.78 603
11.8 544
11.82 581
11.84 561
11.86 561
11.88 559
11.9 547
11.92 575
11.94 549
11.96 539
11.98 536
12 525
12.02 540
12.04 549
12.06 543
12.08 591
12.1 575
12.12 511
12.14 525
12.16 581
12.18 539
12.2 531
12.22 542
12.24 567
12.26 587
12.28 554
12.3 614
12.32 580
12.34 563
12.36 569
12.38 612
12.4 526
12.42 548
12.44 547
12.46 559
12.48 563
12.5 547
12.52 577
12.54 597
12.56 546
12.58 522
12.6 550
12.62 547
12.64 550
12.66 551
12.68 573
12.7 595
12.72 500
12.74 553
12.76 597
12.78 554
12.8 573
12.82 566
12.84 560
12.86 569
12.88 596
12.9 608
12.92 572
12.94 588
12.96 576
12.98 555
13 532
13.02 611
13.04 565
13.06 569
13.08 612
13.1 584
13.12 611
13.14 578
13.16 596
13.18 585
13.2 595
13.22 581
13.24 622
13.26 602
13.28 575
13.3 640
13.32 614
13.34 629
13.36 605
13.38 574
13.4 617
13.42 637
13.44 669
13.46 569
13.48 576
13.5 576
13.52 609
13.54 636
13.56 616
13.58 615
13.6 618
13.62 587
13.64 574
13.66 569
13.68 609
13.7 522
13.72 590
13.74 601
13.76 606
13.78 580
13.8 618
13.82 606
13.84 577
13.86 558
13.88 595
13.9 613
13.92 600
13.94 585
13.96 592
13.98 561
14 601
14.02 621
14.04 631
14.06 621
14.08 597
14.1 605
14.12 618
14.14 586
14.16 601
14.18 623
14.2 613
14.22 622
14.24 611
14.26 605
14.28 625
14.3 664
14.32 655
14.34 710
14.36 677
14.38 624
14.4 674
14.42 660
14.44 683
14.46 700
14.48 645
14.5 713
14.52 682
14.54 632
14.56 643
14.58 657
14.6 713
14.62 665
14.64 640
14.66 656
14.68 593
14.7 650
14.72 668
14.74 661
14.76 672
14.78 657
14.8 666
14.82 628
14.84 696
14.86 663
14.88 694
14.9 658
14.92 697
14.94 682
14.96 677
14.98 695
15 675
15.02 636
15.04 599
15.06 668
15.08 632
15.1 691
15.12 652
15.14 651
15.16 683
15.18 647
15.2 693
15.22 669
15.24 677
15.26 666
15.28 655
15.3 692
15.32 694
15.34 690
15.36 712
15.38 716
15.4 713
15.42 713
15.44 671
15.46 690
15.48 690
15.5 722
15.52 673
15.54 688
15.56 710
15.58 725
15.6 748
15.62 721
15.64 736
15.66 742
15.68 712
15.7 734
15.72 742
15.74 747
15.76 723
15.78 667
15.8 735
15.82 729
15.84 707
15.86 691
15.88 736
15.9 733
15.92 722
15.94 750
15.96 724
15.98 670
16 754
16.02 717
16.04 771
16.06 781
16.08 750
16.1 767
16.12 778
16.14 765
16.16 786
16.18 779
16.2 717
16.22 731
16.24 798
16.26 774
16.28 789
16.3 793
16.32 760
16.34 807
16.36 737
16.38 783
16.4 831
16.42 787
16.44 768
16.46 787
16.48 794
16.5 847
16.52 784
16.54 859
16.56 820
16.58 816
16.6 813
16.62 786
16.64 769
16.66 830
16.68 802
16.7 862
16.72 819
16.74 841
16.76 867
16.78 817
16.8 853
16.82 834
16.84 882
16.86 862
16.88 929
16.9 924
16.92 989
16.94 1085
16.96 1117
16.98 1231
17 1276
17.02 1333
17.04 1381
17.06 1268
17.08 1205
17.1 1115
17.12 997
17.14 979
17.16 916
17.18 885
17.2 909
17.22 905
17.24 896
17.26 838
17.28 906
17.3 899
17.32 857
17.34 917
17.36 914
17.38 969
17.4 955
17.42 886
17.44 929
17.46 925
17.48 950
17.5 901
17.52 921
17.54 896
17.56 928
17.58 904
17.6 941
17.62 957
17.64 943
17.66 968
17.68 964
17.7 934
17.72 952
17.74 938
17.76 908
17.78 924
17.8 915
17.82 902
17.84 979
17.86 1039
17.88 928
17.9 976
17.92 971
17.94 967
17.96 981
17.98 911
18 935
18.02 982
18.04 945
18.06 960
18.08 972
18.1 917
18.12 982
18.14 1003
18.16 1072
18.18 1001
18.2 1008
18.22 1048
18.24 1022
18.26 1069
18.28 972
18.3 991
18.32 997
18.34 993
18.36 998
18.38 1040
18.4 973
18.42 991
18.44 1040
18.46 1077
18.48 1027
18.5 1021
18.52 1064
18.54 1013
18.56 1042
18.58 993
18.6 1028
18.62 1048
18.64 1075
18.66 1118
18.68 1101
18.7 1069
18.72 1024
18.74 1108
18.76 1137
18.78 1101
18.8 1072
18.82 1082
18.84 1123
18.86 1110
18.88 1035
18.9 1105
18.92 1078
18.94 1128
18.96 1094
18.98 1075
19 1132
19.02 1104
19.04 1173
19.06 1174
19.08 1133
19.1 1114
19.12 1130
19.14 1159
19.16 1213
19.18 1177
19.2 1146
19.22 1157
19.24 1146
19.26 1210
19.28 1168
19.3 1141
19.32 1198
19.34 1175
19.36 1188
19.38 1174
19.4 1226
19.42 1238
19.44 1189
19.46 1279
19.48 1208
19.5 1257
19.52 1264
19.54 1319
19.56 1317
19.58 1321
19.6 1270
19.62 1250
19.64 1333
19.66 1240
19.68 1321
19.7 1310
19.72 1309
19.74 1270
19.76 1282
19.78 1307
19.8 1308
19.82 1331
19.84 1307
19.86 1329
19.88 1265
19.9 1349
19.92 1373
19.94 1363
19.96 1334
19.98 1358
20 1339