File: xrd-UiO-67/pxrddata/45-18.ASC
3 2173
3.02 2038
3.04 1782
3.06 1772
3.08 1718
3.1 1617
3.12 1550
3.14 1419
3.16 1414
3.18 1394
3.2 1362
3.22 1420
3.24 1411
3.26 1366
3.28 1332
3.3 1231
3.32 1318
3.34 1278
3.36 1280
3.38 1257
3.4 1306
3.42 1235
3.44 1261
3.46 1226
3.48 1192
3.5 1181
3.52 1181
3.54 1202
3.56 1201
3.58 1132
3.6 1155
3.62 1142
3.64 1121
3.66 1072
3.68 1052
3.7 1069
3.72 1035
3.74 1000
3.76 1027
3.78 1029
3.8 1065
3.82 995
3.84 974
3.86 904
3.88 986
3.9 986
3.92 934
3.94 985
3.96 941
3.98 927
4 900
4.02 885
4.04 927
4.06 975
4.08 892
4.1 862
4.12 887
4.14 889
4.16 861
4.18 849
4.2 826
4.22 835
4.24 809
4.26 838
4.28 834
4.3 813
4.32 835
4.34 824
4.36 800
4.38 757
4.4 800
4.42 778
4.44 737
4.46 779
4.48 795
4.5 808
4.52 747
4.54 779
4.56 761
4.58 829
4.6 778
4.62 764
4.64 791
4.66 805
4.68 784
4.7 728
4.72 733
4.74 732
4.76 738
4.78 718
4.8 735
4.82 745
4.84 701
4.86 726
4.88 734
4.9 730
4.92 705
4.94 716
4.96 728
4.98 647
5 644
5.02 692
5.04 684
5.06 696
5.08 727
5.1 713
5.12 670
5.14 675
5.16 676
5.18 679
5.2 679
5.22 672
5.24 662
5.26 659
5.28 670
5.3 665
5.32 679
5.34 679
5.36 706
5.38 654
5.4 663
5.42 642
5.44 621
5.46 666
5.48 643
5.5 684
5.52 656
5.54 678
5.56 686
5.58 666
5.6 647
5.62 664
5.64 659
5.66 648
5.68 680
5.7 662
5.72 711
5.74 641
5.76 666
5.78 636
5.8 684
5.82 639
5.84 657
5.86 616
5.88 712
5.9 678
5.92 676
5.94 631
5.96 673
5.98 662
6 629
6.02 689
6.04 647
6.06 683
6.08 662
6.1 687
6.12 721
6.14 657
6.16 658
6.18 704
6.2 664
6.22 696
6.24 692
6.26 645
6.28 688
6.3 706
6.32 674
6.34 706
6.36 686
6.38 712
6.4 774
6.42 705
6.44 706
6.46 707
6.48 810
6.5 734
6.52 755
6.54 690
6.56 753
6.58 723
6.6 714
6.62 716
6.64 734
6.66 753
6.68 778
6.7 776
6.72 804
6.74 777
6.76 790
6.78 802
6.8 743
6.82 780
6.84 832
6.86 784
6.88 839
6.9 779
6.92 825
6.94 732
6.96 819
6.98 744
7 754
7.02 803
7.04 761
7.06 783
7.08 794
7.1 760
7.12 779
7.14 821
7.16 724
7.18 774
7.2 813
7.22 784
7.24 749
7.26 723
7.28 806
7.3 761
7.32 754
7.34 733
7.36 769
7.38 766
7.4 725
7.42 730
7.44 737
7.46 759
7.48 795
7.5 721
7.52 730
7.54 742
7.56 723
7.58 730
7.6 728
7.62 732
7.64 755
7.66 789
7.68 715
7.7 700
7.72 698
7.74 699
7.76 720
7.78 722
7.8 722
7.82 752
7.84 671
7.86 734
7.88 740
7.9 752
7.92 701
7.94 749
7.96 733
7.98 762
8 709
8.02 728
8.04 716
8.06 742
8.08 773
8.1 757
8.12 775
8.14 764
8.16 769
8.18 756
8.2 748
8.22 782
8.24 801
8.26 793
8.28 775
8.3 806
8.32 843
8.34 786
8.36 816
8.38 814
8.4 853
8.42 898
8.44 832
8.46 875
8.48 954
8.5 932
8.52 908
8.54 907
8.56 958
8.58 961
8.6 1044
8.62 1049
8.64 1109
8.66 1134
8.68 1265
8.7 1265
8.72 1313
8.74 1365
8.76 1433
8.78 1544
8.8 1626
8.82 1694
8.84 1782
8.86 1923
8.88 2118
8.9 2223
8.92 2518
8.94 2672
8.96 2722
8.98 2506
9 2429
9.02 2315
9.04 2249
9.06 2150
9.08 2094
9.1 1937
9.12 1934
9.14 1842
9.16 1744
9.18 1713
9.2 1721
9.22 1685
9.24 1696
9.26 1667
9.28 1627
9.3 1626
9.32 1638
9.34 1710
9.36 1586
9.38 1545
9.4 1497
9.42 1439
9.44 1382
9.46 1335
9.48 1273
9.5 1307
9.52 1249
9.54 1255
9.56 1243
9.58 1247
9.6 1204
9.62 1284
9.64 1298
9.66 1363
9.68 1378
9.7 1424
9.72 1493
9.74 1500
9.76 1574
9.78 1637
9.8 1703
9.82 1759
9.84 1893
9.86 1983
9.88 2172
9.9 2215
9.92 2395
9.94 2469
9.96 2515
9.98 2546
10 2499
10.02 2326
10.04 2054
10.06 1897
10.08 1701
10.1 1618
10.12 1463
10.14 1393
10.16 1292
10.18 1267
10.2 1222
10.22 1168
10.24 1149
10.26 1124
10.28 1102
10.3 1060
10.32 1047
10.34 1041
10.36 994
10.38 1048
10.4 1001
10.42 967
10.44 1019
10.46 1042
10.48 974
10.5 1011
10.52 1028
10.54 1020
10.56 964
10.58 1004
10.6 960
10.62 979
10.64 974
10.66 1027
10.68 1046
10.7 1025
10.72 992
10.74 1039
10.76 1005
10.78 1051
10.8 1073
10.82 945
10.84 1070
10.86 1049
10.88 995
10.9 973
10.92 989
10.94 1008
10.96 917
10.98 891
11 895
11.02 834
11.04 802
11.06 792
11.08 782
11.1 777
11.12 717
11.14 747
11.16 738
11.18 683
11.2 668
11.22 708
11.24 716
11.26 662
11.28 717
11.3 705
11.32 682
11.34 716
11.36 665
11.38 635
11.4 639
11.42 684
11.44 692
11.46 634
11.48 650
11.5 648
11.52 653
11.54 628
11.56 633
11.58 647
11.6 607
11.62 632
11.64 583
11.66 637
11.68 661
11.7 626
11.72 636
11.74 642
11.76 586
11.78 647
11.8 579
11.82 604
11.84 669
11.86 624
11.88 607
11.9 603
11.92 593
11.94 645
11.96 610
11.98 605
12 604
12.02 574
12.04 606
12.06 592
12.08 610
12.1 599
12.12 660
12.14 627
12.16 672
12.18 608
12.2 633
12.22 629
12.24 629
12.26 630
12.28 645
12.3 646
12.32 693
12.34 700
12.36 717
12.38 691
12.4 714
12.42 788
12.44 793
12.46 844
12.48 922
12.5 962
12.52 1005
12.54 1147
12.56 1278
12.58 1284
12.6 1356
12.62 1391
12.64 1455
12.66 1384
12.68 1296
12.7 1279
12.72 1200
12.74 1096
12.76 1014
12.78 960
12.8 813
12.82 818
12.84 814
12.86 795
12.88 713
12.9 725
12.92 742
12.94 684
12.96 740
12.98 672
13 670
13.02 670
13.04 709
13.06 698
13.08 649
13.1 664
13.12 675
13.14 667
13.16 656
13.18 693
13.2 709
13.22 698
13.24 644
13.26 672
13.28 705
13.3 745
13.32 668
13.34 714
13.36 637
13.38 710
13.4 611
13.42 703
13.44 660
13.46 579
13.48 672
13.5 633
13.52 632
13.54 657
13.56 635
13.58 696
13.6 682
13.62 602
13.64 650
13.66 638
13.68 613
13.7 623
13.72 672
13.74 604
13.76 654
13.78 667
13.8 608
13.82 651
13.84 619
13.86 644
13.88 603
13.9 659
13.92 639
13.94 629
13.96 616
13.98 646
14 617
14.02 608
14.04 609
14.06 638
14.08 650
14.1 644
14.12 602
14.14 615
14.16 625
14.18 682
14.2 658
14.22 635
14.24 615
14.26 666
14.28 668
14.3 657
14.32 666
14.34 679
14.36 687
14.38 692
14.4 679
14.42 665
14.44 670
14.46 703
14.48 665
14.5 691
14.52 675
14.54 724
14.56 759
14.58 682
14.6 690
14.62 704
14.64 702
14.66 659
14.68 684
14.7 697
14.72 658
14.74 655
14.76 691
14.78 667
14.8 660
14.82 649
14.84 663
14.86 628
14.88 661
14.9 654
14.92 625
14.94 627
14.96 658
14.98 631
15 613
15.02 648
15.04 645
15.06 616
15.08 656
15.1 654
15.12 668
15.14 651
15.16 642
15.18 663
15.2 658
15.22 667
15.24 638
15.26 638
15.28 652
15.3 658
15.32 645
15.34 683
15.36 636
15.38 619
15.4 667
15.42 632
15.44 634
15.46 637
15.48 670
15.5 631
15.52 664
15.54 659
15.56 644
15.58 668
15.6 634
15.62 646
15.64 679
15.66 697
15.68 628
15.7 665
15.72 650
15.74 660
15.76 677
15.78 680
15.8 669
15.82 669
15.84 627
15.86 632
15.88 656
15.9 668
15.92 664
15.94 669
15.96 700
15.98 659
16 671
16.02 690
16.04 718
16.06 695
16.08 663
16.1 667
16.12 700
16.14 678
16.16 657
16.18 693
16.2 691
16.22 685
16.24 653
16.26 662
16.28 672
16.3 683
16.32 686
16.34 707
16.36 738
16.38 760
16.4 681
16.42 736
16.44 745
16.46 713
16.48 716
16.5 732
16.52 733
16.54 740
16.56 676
16.58 729
16.6 710
16.62 728
16.64 712
16.66 720
16.68 754
16.7 755
16.72 770
16.74 805
16.76 861
16.78 837
16.8 929
16.82 898
16.84 964
16.86 1017
16.88 1069
16.9 1203
16.92 1288
16.94 1339
16.96 1453
16.98 1430
17 1373
17.02 1294
17.04 1202
17.06 1009
17.08 915
17.1 868
17.12 797
17.14 743
17.16 756
17.18 751
17.2 772
17.22 769
17.24 777
17.26 755
17.28 764
17.3 722
17.32 724
17.34 754
17.36 758
17.38 802
17.4 752
17.42 801
17.44 770
17.46 762
17.48 761
17.5 772
17.52 760
17.54 762
17.56 759
17.58 747
17.6 780
17.62 770
17.64 790
17.66 814
17.68 780
17.7 871
17.72 837
17.74 785
17.76 807
17.78 832
17.8 827
17.82 831
17.84 854
17.86 840
17.88 882
17.9 859
17.92 805
17.94 827
17.96 812
17.98 815
18 828
18.02 852
18.04 850
18.06 845
18.08 863
18.1 842
18.12 864
18.14 875
18.16 887
18.18 899
18.2 926
18.22 837
18.24 883
18.26 890
18.28 874
18.3 953
18.32 896
18.34 935
18.36 932
18.38 933
18.4 922
18.42 908
18.44 904
18.46 879
18.48 896
18.5 890
18.52 902
18.54 876
18.56 944
18.58 925
18.6 969
18.62 921
18.64 870
18.66 920
18.68 929
18.7 861
18.72 932
18.74 936
18.76 926
18.78 930
18.8 880
18.82 963
18.84 956
18.86 873
18.88 887
18.9 906
18.92 957
18.94 909
18.96 924
18.98 939
19 913
19.02 915
19.04 935
19.06 886
19.08 937
19.1 940
19.12 964
19.14 903
19.16 957
19.18 957
19.2 941
19.22 920
19.24 967
19.26 957
19.28 980
19.3 918
19.32 942
19.34 991
19.36 941
19.38 970
19.4 971
19.42 940
19.44 944
19.46 953
19.48 987
19.5 958
19.52 958
19.54 1007
19.56 986
19.58 1014
19.6 991
19.62 1025
19.64 973
19.66 977
19.68 1028
19.7 1085
19.72 1026
19.74 1002
19.76 1049
19.78 1055
19.8 1015
19.82 1137
19.84 1128
19.86 1203
19.88 1169
19.9 1220
19.92 1246
19.94 1343
19.96 1222
19.98 1246
20 1211