File: xrd-UiO-67/pxrddata/45-17.ASC
3 2396
3.02 2237
3.04 2173
3.06 2072
3.08 1916
3.1 1815
3.12 1677
3.14 1685
3.16 1700
3.18 1634
3.2 1615
3.22 1574
3.24 1514
3.26 1562
3.28 1575
3.3 1556
3.32 1475
3.34 1446
3.36 1438
3.38 1387
3.4 1436
3.42 1410
3.44 1425
3.46 1362
3.48 1297
3.5 1320
3.52 1340
3.54 1298
3.56 1299
3.58 1203
3.6 1266
3.62 1170
3.64 1173
3.66 1157
3.68 1189
3.7 1162
3.72 1197
3.74 1130
3.76 1107
3.78 1176
3.8 1141
3.82 1040
3.84 1070
3.86 1092
3.88 1043
3.9 1067
3.92 990
3.94 1012
3.96 982
3.98 1042
4 973
4.02 1022
4.04 989
4.06 942
4.08 990
4.1 1001
4.12 929
4.14 983
4.16 911
4.18 960
4.2 965
4.22 938
4.24 879
4.26 878
4.28 916
4.3 925
4.32 892
4.34 808
4.36 895
4.38 882
4.4 846
4.42 857
4.44 812
4.46 818
4.48 800
4.5 820
4.52 833
4.54 843
4.56 814
4.58 786
4.6 831
4.62 828
4.64 780
4.66 740
4.68 804
4.7 823
4.72 810
4.74 763
4.76 763
4.78 752
4.8 786
4.82 760
4.84 766
4.86 743
4.88 728
4.9 721
4.92 721
4.94 733
4.96 754
4.98 684
5 675
5.02 703
5.04 704
5.06 744
5.08 719
5.1 701
5.12 690
5.14 705
5.16 701
5.18 691
5.2 663
5.22 688
5.24 693
5.26 696
5.28 696
5.3 651
5.32 663
5.34 688
5.36 663
5.38 704
5.4 665
5.42 682
5.44 661
5.46 684
5.48 701
5.5 695
5.52 668
5.54 627
5.56 709
5.58 622
5.6 630
5.62 630
5.64 681
5.66 645
5.68 661
5.7 618
5.72 605
5.74 677
5.76 663
5.78 650
5.8 642
5.82 637
5.84 636
5.86 659
5.88 671
5.9 647
5.92 641
5.94 633
5.96 655
5.98 649
6 618
6.02 632
6.04 649
6.06 619
6.08 660
6.1 642
6.12 671
6.14 653
6.16 690
6.18 645
6.2 677
6.22 662
6.24 672
6.26 651
6.28 644
6.3 654
6.32 618
6.34 637
6.36 622
6.38 622
6.4 691
6.42 620
6.44 665
6.46 636
6.48 621
6.5 659
6.52 653
6.54 623
6.56 625
6.58 662
6.6 645
6.62 606
6.64 664
6.66 667
6.68 630
6.7 672
6.72 645
6.74 635
6.76 671
6.78 638
6.8 647
6.82 611
6.84 654
6.86 637
6.88 625
6.9 594
6.92 590
6.94 624
6.96 618
6.98 611
7 651
7.02 647
7.04 655
7.06 620
7.08 626
7.1 646
7.12 591
7.14 607
7.16 634
7.18 613
7.2 638
7.22 622
7.24 584
7.26 632
7.28 590
7.3 619
7.32 618
7.34 631
7.36 660
7.38 619
7.4 663
7.42 662
7.44 663
7.46 618
7.48 597
7.5 629
7.52 620
7.54 657
7.56 612
7.58 634
7.6 602
7.62 662
7.64 626
7.66 613
7.68 579
7.7 588
7.72 612
7.74 660
7.76 654
7.78 671
7.8 645
7.82 683
7.84 660
7.86 656
7.88 608
7.9 661
7.92 647
7.94 650
7.96 641
7.98 710
8 666
8.02 659
8.04 659
8.06 664
8.08 678
8.1 643
8.12 672
8.14 667
8.16 636
8.18 678
8.2 667
8.22 670
8.24 644
8.26 679
8.28 661
8.3 664
8.32 677
8.34 699
8.36 673
8.38 737
8.4 708
8.42 726
8.44 744
8.46 725
8.48 775
8.5 773
8.52 796
8.54 726
8.56 766
8.58 749
8.6 826
8.62 843
8.64 858
8.66 859
8.68 924
8.7 903
8.72 986
8.74 972
8.76 1063
8.78 1066
8.8 1158
8.82 1214
8.84 1340
8.86 1443
8.88 1476
8.9 1534
8.92 1470
8.94 1517
8.96 1502
8.98 1515
9 1530
9.02 1406
9.04 1246
9.06 1102
9.08 1050
9.1 1012
9.12 965
9.14 935
9.16 986
9.18 933
9.2 923
9.22 955
9.24 891
9.26 899
9.28 914
9.3 942
9.32 916
9.34 910
9.36 912
9.38 848
9.4 832
9.42 825
9.44 834
9.46 830
9.48 817
9.5 817
9.52 807
9.54 802
9.56 837
9.58 833
9.6 836
9.62 879
9.64 819
9.66 863
9.68 901
9.7 869
9.72 962
9.74 1006
9.76 969
9.78 1045
9.8 1062
9.82 1083
9.84 1227
9.86 1228
9.88 1421
9.9 1506
9.92 1604
9.94 1614
9.96 1391
9.98 1363
10 1294
10.02 1187
10.04 1095
10.06 1048
10.08 970
10.1 953
10.12 884
10.14 916
10.16 786
10.18 788
10.2 817
10.22 755
10.24 720
10.26 737
10.28 747
10.3 680
10.32 682
10.34 698
10.36 656
10.38 703
10.4 679
10.42 659
10.44 698
10.46 690
10.48 618
10.5 681
10.52 649
10.54 682
10.56 662
10.58 657
10.6 652
10.62 654
10.64 622
10.66 660
10.68 655
10.7 621
10.72 625
10.74 654
10.76 645
10.78 611
10.8 696
10.82 642
10.84 618
10.86 663
10.88 706
10.9 698
10.92 647
10.94 670
10.96 654
10.98 613
11 647
11.02 635
11.04 640
11.06 642
11.08 627
11.1 602
11.12 624
11.14 629
11.16 581
11.18 588
11.2 598
11.22 618
11.24 548
11.26 569
11.28 543
11.3 573
11.32 571
11.34 563
11.36 573
11.38 566
11.4 618
11.42 584
11.44 588
11.46 557
11.48 579
11.5 580
11.52 550
11.54 646
11.56 588
11.58 586
11.6 576
11.62 606
11.64 601
11.66 545
11.68 563
11.7 582
11.72 558
11.74 567
11.76 582
11.78 574
11.8 568
11.82 577
11.84 552
11.86 580
11.88 635
11.9 586
11.92 569
11.94 562
11.96 585
11.98 583
12 544
12.02 584
12.04 586
12.06 583
12.08 581
12.1 559
12.12 585
12.14 607
12.16 571
12.18 607
12.2 609
12.22 553
12.24 566
12.26 585
12.28 570
12.3 592
12.32 602
12.34 587
12.36 599
12.38 631
12.4 598
12.42 601
12.44 613
12.46 653
12.48 633
12.5 683
12.52 736
12.54 743
12.56 788
12.58 833
12.6 875
12.62 882
12.64 870
12.66 863
12.68 833
12.7 815
12.72 753
12.74 737
12.76 690
12.78 686
12.8 650
12.82 613
12.84 629
12.86 621
12.88 658
12.9 632
12.92 640
12.94 628
12.96 606
12.98 623
13 658
13.02 610
13.04 604
13.06 618
13.08 654
13.1 637
13.12 672
13.14 653
13.16 612
13.18 594
13.2 643
13.22 722
13.24 637
13.26 717
13.28 707
13.3 727
13.32 760
13.34 781
13.36 767
13.38 818
13.4 764
13.42 723
13.44 710
13.46 675
13.48 688
13.5 661
13.52 594
13.54 601
13.56 638
13.58 595
13.6 643
13.62 668
13.64 584
13.66 595
13.68 640
13.7 583
13.72 570
13.74 592
13.76 642
13.78 601
13.8 623
13.82 626
13.84 655
13.86 601
13.88 563
13.9 583
13.92 608
13.94 656
13.96 631
13.98 641
14 633
14.02 601
14.04 613
14.06 588
14.08 621
14.1 621
14.12 629
14.14 635
14.16 584
14.18 637
14.2 614
14.22 625
14.24 626
14.26 612
14.28 600
14.3 600
14.32 677
14.34 599
14.36 646
14.38 624
14.4 613
14.42 627
14.44 642
14.46 647
14.48 617
14.5 627
14.52 676
14.54 677
14.56 655
14.58 628
14.6 598
14.62 657
14.64 684
14.66 656
14.68 639
14.7 612
14.72 639
14.74 649
14.76 657
14.78 648
14.8 640
14.82 677
14.84 621
14.86 636
14.88 629
14.9 643
14.92 676
14.94 670
14.96 671
14.98 637
15 659
15.02 617
15.04 619
15.06 630
15.08 587
15.1 637
15.12 639
15.14 630
15.16 646
15.18 653
15.2 645
15.22 660
15.24 636
15.26 642
15.28 650
15.3 694
15.32 652
15.34 675
15.36 675
15.38 682
15.4 659
15.42 697
15.44 688
15.46 691
15.48 693
15.5 626
15.52 664
15.54 697
15.56 640
15.58 653
15.6 663
15.62 627
15.64 656
15.66 625
15.68 703
15.7 655
15.72 681
15.74 663
15.76 687
15.78 681
15.8 695
15.82 674
15.84 685
15.86 735
15.88 715
15.9 721
15.92 671
15.94 733
15.96 664
15.98 644
16 673
16.02 638
16.04 681
16.06 666
16.08 711
16.1 711
16.12 680
16.14 726
16.16 728
16.18 744
16.2 678
16.22 725
16.24 686
16.26 731
16.28 763
16.3 707
16.32 709
16.34 716
16.36 746
16.38 668
16.4 762
16.42 704
16.44 789
16.46 738
16.48 757
16.5 759
16.52 760
16.54 718
16.56 757
16.58 767
16.6 769
16.62 771
16.64 757
16.66 781
16.68 766
16.7 826
16.72 802
16.74 888
16.76 890
16.78 912
16.8 921
16.82 970
16.84 1019
16.86 1139
16.88 1185
16.9 1343
16.92 1469
16.94 1682
16.96 1751
16.98 1789
17 1712
17.02 1491
17.04 1325
17.06 1035
17.08 968
17.1 890
17.12 857
17.14 824
17.16 859
17.18 790
17.2 775
17.22 790
17.24 836
17.26 769
17.28 757
17.3 784
17.32 806
17.34 799
17.36 788
17.38 809
17.4 826
17.42 797
17.44 848
17.46 814
17.48 800
17.5 758
17.52 809
17.54 798
17.56 855
17.58 825
17.6 836
17.62 859
17.64 804
17.66 836
17.68 854
17.7 845
17.72 850
17.74 878
17.76 851
17.78 840
17.8 848
17.82 861
17.84 845
17.86 816
17.88 809
17.9 841
17.92 829
17.94 837
17.96 900
17.98 837
18 858
18.02 880
18.04 896
18.06 889
18.08 924
18.1 907
18.12 855
18.14 853
18.16 895
18.18 826
18.2 889
18.22 931
18.24 851
18.26 886
18.28 909
18.3 898
18.32 912
18.34 931
18.36 919
18.38 951
18.4 878
18.42 911
18.44 930
18.46 973
18.48 893
18.5 920
18.52 937
18.54 973
18.56 944
18.58 883
18.6 930
18.62 892
18.64 907
18.66 920
18.68 918
18.7 931
18.72 942
18.74 924
18.76 913
18.78 880
18.8 937
18.82 950
18.84 933
18.86 945
18.88 988
18.9 915
18.92 956
18.94 938
18.96 944
18.98 936
19 923
19.02 893
19.04 910
19.06 937
19.08 976
19.1 942
19.12 980
19.14 1005
19.16 934
19.18 960
19.2 913
19.22 938
19.24 999
19.26 941
19.28 931
19.3 940
19.32 935
19.34 1044
19.36 991
19.38 985
19.4 1027
19.42 989
19.44 979
19.46 985
19.48 979
19.5 1006
19.52 966
19.54 1012
19.56 999
19.58 1022
19.6 1025
19.62 1069
19.64 1021
19.66 988
19.68 1104
19.7 1075
19.72 1022
19.74 1091
19.76 1131
19.78 1128
19.8 1174
19.82 1170
19.84 1225
19.86 1190
19.88 1259
19.9 1160
19.92 1193
19.94 1230
19.96 1166
19.98 1145
20 1167