File: xrd-UiO-67/pxrddata/45-11.ASC
3 2333
3.02 2183
3.04 2064
3.06 1856
3.08 1793
3.1 1767
3.12 1652
3.14 1587
3.16 1621
3.18 1595
3.2 1561
3.22 1488
3.24 1501
3.26 1405
3.28 1469
3.3 1455
3.32 1449
3.34 1382
3.36 1296
3.38 1396
3.4 1347
3.42 1294
3.44 1248
3.46 1315
3.48 1254
3.5 1269
3.52 1294
3.54 1256
3.56 1227
3.58 1250
3.6 1119
3.62 1135
3.64 1152
3.66 1113
3.68 1161
3.7 1127
3.72 1164
3.74 1095
3.76 1063
3.78 1083
3.8 1116
3.82 1092
3.84 1082
3.86 1126
3.88 1061
3.9 961
3.92 1008
3.94 1072
3.96 1010
3.98 1061
4 983
4.02 1011
4.04 1025
4.06 1117
4.08 1080
4.1 1094
4.12 1119
4.14 1027
4.16 997
4.18 923
4.2 871
4.22 893
4.24 867
4.26 853
4.28 909
4.3 856
4.32 858
4.34 804
4.36 840
4.38 837
4.4 807
4.42 874
4.44 790
4.46 833
4.48 793
4.5 793
4.52 763
4.54 781
4.56 784
4.58 743
4.6 767
4.62 802
4.64 815
4.66 785
4.68 769
4.7 873
4.72 757
4.74 776
4.76 743
4.78 773
4.8 805
4.82 757
4.84 720
4.86 761
4.88 802
4.9 756
4.92 785
4.94 773
4.96 734
4.98 724
5 765
5.02 783
5.04 705
5.06 733
5.08 775
5.1 787
5.12 844
5.14 845
5.16 848
5.18 853
5.2 884
5.22 919
5.24 968
5.26 922
5.28 923
5.3 988
5.32 1008
5.34 989
5.36 1032
5.38 1115
5.4 1224
5.42 1312
5.44 1314
5.46 1297
5.48 1215
5.5 1238
5.52 1305
5.54 1325
5.56 1532
5.58 1501
5.6 1685
5.62 1738
5.64 1914
5.66 2135
5.68 2309
5.7 2639
5.72 3052
5.74 3776
5.76 4655
5.78 5336
5.8 4559
5.82 3188
5.84 1914
5.86 1400
5.88 1123
5.9 985
5.92 873
5.94 852
5.96 798
5.98 765
6 744
6.02 753
6.04 705
6.06 705
6.08 704
6.1 732
6.12 771
6.14 720
6.16 710
6.18 761
6.2 762
6.22 721
6.24 752
6.26 692
6.28 722
6.3 753
6.32 792
6.34 817
6.36 833
6.38 834
6.4 860
6.42 867
6.44 988
6.46 956
6.48 999
6.5 1041
6.52 1096
6.54 1193
6.56 1306
6.58 1406
6.6 1532
6.62 1644
6.64 1946
6.66 2011
6.68 1716
6.7 1348
6.72 1165
6.74 1109
6.76 1031
6.78 1011
6.8 960
6.82 825
6.84 801
6.86 669
6.88 648
6.9 652
6.92 629
6.94 628
6.96 585
6.98 608
7 600
7.02 612
7.04 569
7.06 577
7.08 609
7.1 620
7.12 580
7.14 614
7.16 563
7.18 608
7.2 586
7.22 599
7.24 576
7.26 589
7.28 575
7.3 538
7.32 581
7.34 570
7.36 554
7.38 659
7.4 569
7.42 566
7.44 567
7.46 578
7.48 591
7.5 584
7.52 555
7.54 597
7.56 588
7.58 566
7.6 569
7.62 585
7.64 581
7.66 631
7.68 606
7.7 577
7.72 600
7.74 602
7.76 599
7.78 608
7.8 565
7.82 594
7.84 563
7.86 558
7.88 585
7.9 537
7.92 571
7.94 597
7.96 618
7.98 567
8 552
8.02 554
8.04 560
8.06 565
8.08 586
8.1 580
8.12 595
8.14 568
8.16 546
8.18 588
8.2 595
8.22 571
8.24 570
8.26 603
8.28 570
8.3 582
8.32 552
8.34 580
8.36 611
8.38 528
8.4 600
8.42 592
8.44 561
8.46 567
8.48 553
8.5 554
8.52 560
8.54 543
8.56 553
8.58 559
8.6 578
8.62 554
8.64 574
8.66 529
8.68 551
8.7 531
8.72 565
8.74 549
8.76 609
8.78 534
8.8 593
8.82 565
8.84 597
8.86 588
8.88 616
8.9 584
8.92 583
8.94 580
8.96 598
8.98 597
9 626
9.02 624
9.04 636
9.06 630
9.08 645
9.1 672
9.12 688
9.14 688
9.16 715
9.18 764
9.2 802
9.22 853
9.24 946
9.26 981
9.28 1056
9.3 1147
9.32 1332
9.34 1587
9.36 1847
9.38 2082
9.4 1825
9.42 1354
9.44 950
9.46 772
9.48 719
9.5 665
9.52 615
9.54 602
9.56 608
9.58 583
9.6 562
9.62 564
9.64 558
9.66 577
9.68 564
9.7 563
9.72 551
9.74 540
9.76 565
9.78 574
9.8 603
9.82 567
9.84 544
9.86 562
9.88 591
9.9 570
9.92 554
9.94 561
9.96 577
9.98 554
10 495
10.02 539
10.04 545
10.06 548
10.08 558
10.1 563
10.12 580
10.14 594
10.16 597
10.18 585
10.2 621
10.22 612
10.24 584
10.26 589
10.28 534
10.3 513
10.32 528
10.34 541
10.36 548
10.38 564
10.4 563
10.42 533
10.44 563
10.46 547
10.48 569
10.5 560
10.52 544
10.54 553
10.56 576
10.58 528
10.6 549
10.62 571
10.64 606
10.66 607
10.68 641
10.7 652
10.72 616
10.74 672
10.76 706
10.78 731
10.8 779
10.82 795
10.84 775
10.86 847
10.88 854
10.9 980
10.92 1045
10.94 1165
10.96 1272
10.98 1499
11 1592
11.02 1387
11.04 1069
11.06 960
11.08 783
11.1 759
11.12 700
11.14 660
11.16 690
11.18 612
11.2 617
11.22 662
11.24 639
11.26 624
11.28 610
11.3 629
11.32 645
11.34 647
11.36 690
11.38 747
11.4 763
11.42 784
11.44 884
11.46 968
11.48 1046
11.5 1073
11.52 941
11.54 839
11.56 757
11.58 647
11.6 633
11.62 600
11.64 597
11.66 594
11.68 542
11.7 570
11.72 518
11.74 538
11.76 555
11.78 515
11.8 527
11.82 487
11.84 519
11.86 544
11.88 510
11.9 520
11.92 459
11.94 518
11.96 517
11.98 537
12 524
12.02 517
12.04 533
12.06 513
12.08 489
12.1 550
12.12 515
12.14 541
12.16 586
12.18 546
12.2 555
12.22 554
12.24 514
12.26 593
12.28 549
12.3 581
12.32 520
12.34 561
12.36 503
12.38 546
12.4 525
12.42 519
12.44 530
12.46 525
12.48 552
12.5 535
12.52 541
12.54 533
12.56 546
12.58 524
12.6 486
12.62 542
12.64 504
12.66 541
12.68 568
12.7 563
12.72 490
12.74 538
12.76 536
12.78 482
12.8 519
12.82 500
12.84 549
12.86 511
12.88 583
12.9 510
12.92 567
12.94 503
12.96 515
12.98 502
13 573
13.02 569
13.04 542
13.06 542
13.08 542
13.1 579
13.12 575
13.14 576
13.16 549
13.18 564
13.2 587
13.22 614
13.24 632
13.26 609
13.28 647
13.3 614
13.32 650
13.34 609
13.36 573
13.38 606
13.4 578
13.42 550
13.44 565
13.46 574
13.48 590
13.5 560
13.52 547
13.54 601
13.56 556
13.58 550
13.6 560
13.62 547
13.64 572
13.66 540
13.68 559
13.7 556
13.72 621
13.74 575
13.76 546
13.78 531
13.8 522
13.82 527
13.84 539
13.86 542
13.88 555
13.9 553
13.92 553
13.94 543
13.96 604
13.98 560
14 550
14.02 579
14.04 571
14.06 575
14.08 543
14.1 520
14.12 576
14.14 589
14.16 601
14.18 604
14.2 602
14.22 564
14.24 612
14.26 587
14.28 583
14.3 614
14.32 630
14.34 608
14.36 634
14.38 626
14.4 650
14.42 745
14.44 743
14.46 747
14.48 653
14.5 638
14.52 614
14.54 631
14.56 613
14.58 607
14.6 592
14.62 599
14.64 600
14.66 570
14.68 604
14.7 653
14.72 566
14.74 613
14.76 602
14.78 593
14.8 648
14.82 659
14.84 640
14.86 672
14.88 641
14.9 620
14.92 615
14.94 622
14.96 575
14.98 598
15 551
15.02 610
15.04 624
15.06 639
15.08 656
15.1 566
15.12 622
15.14 589
15.16 585
15.18 638
15.2 603
15.22 621
15.24 657
15.26 628
15.28 634
15.3 629
15.32 593
15.34 597
15.36 614
15.38 641
15.4 611
15.42 600
15.44 586
15.46 604
15.48 601
15.5 658
15.52 670
15.54 651
15.56 629
15.58 648
15.6 626
15.62 672
15.64 641
15.66 630
15.68 623
15.7 623
15.72 698
15.74 633
15.76 599
15.78 652
15.8 679
15.82 687
15.84 644
15.86 675
15.88 690
15.9 659
15.92 709
15.94 663
15.96 665
15.98 651
16 657
16.02 673
16.04 650
16.06 715
16.08 669
16.1 710
16.12 685
16.14 708
16.16 675
16.18 680
16.2 686
16.22 694
16.24 691
16.26 702
16.28 724
16.3 727
16.32 691
16.34 747
16.36 740
16.38 696
16.4 681
16.42 710
16.44 711
16.46 659
16.48 703
16.5 742
16.52 739
16.54 707
16.56 673
16.58 713
16.6 684
16.62 681
16.64 740
16.66 751
16.68 723
16.7 744
16.72 720
16.74 739
16.76 728
16.78 728
16.8 741
16.82 754
16.84 798
16.86 831
16.88 865
16.9 842
16.92 942
16.94 1033
16.96 1135
16.98 1238
17 1362
17.02 1227
17.04 1104
17.06 1033
17.08 918
17.1 861
17.12 800
17.14 777
17.16 830
17.18 806
17.2 857
17.22 863
17.24 872
17.26 907
17.28 819
17.3 859
17.32 843
17.34 799
17.36 818
17.38 834
17.4 818
17.42 831
17.44 809
17.46 786
17.48 797
17.5 782
17.52 831
17.54 814
17.56 832
17.58 793
17.6 860
17.62 813
17.64 779
17.66 774
17.68 788
17.7 842
17.72 813
17.74 746
17.76 843
17.78 859
17.8 807
17.82 854
17.84 893
17.86 793
17.88 844
17.9 824
17.92 883
17.94 857
17.96 799
17.98 822
18 872
18.02 840
18.04 885
18.06 878
18.08 803
18.1 846
18.12 865
18.14 808
18.16 850
18.18 827
18.2 839
18.22 831
18.24 864
18.26 855
18.28 843
18.3 955
18.32 896
18.34 866
18.36 904
18.38 897
18.4 866
18.42 870
18.44 905
18.46 857
18.48 874
18.5 898
18.52 892
18.54 910
18.56 870
18.58 900
18.6 878
18.62 869
18.64 941
18.66 880
18.68 936
18.7 972
18.72 940
18.74 922
18.76 856
18.78 897
18.8 911
18.82 971
18.84 973
18.86 932
18.88 936
18.9 940
18.92 927
18.94 911
18.96 937
18.98 987
19 966
19.02 973
19.04 971
19.06 970
19.08 921
19.1 1012
19.12 1066
19.14 1061
19.16 1000
19.18 1001
19.2 996
19.22 1025
19.24 1000
19.26 1047
19.28 975
19.3 1023
19.32 1007
19.34 973
19.36 1009
19.38 1056
19.4 1069
19.42 1059
19.44 1137
19.46 1063
19.48 1082
19.5 1201
19.52 1208
19.54 1240
19.56 1299
19.58 1372
19.6 1333
19.62 1388
19.64 1364
19.66 1269
19.68 1262
19.7 1133
19.72 1221
19.74 1165
19.76 1174
19.78 1156
19.8 1249
19.82 1253
19.84 1363
19.86 1433
19.88 1439
19.9 1471
19.92 1492
19.94 1391
19.96 1374
19.98 1323
20 1179