File: xrd-UiO-67/pxrddata/45-13.ASC
3 2186
3.02 2025
3.04 1928
3.06 1749
3.08 1668
3.1 1548
3.12 1550
3.14 1504
3.16 1503
3.18 1407
3.2 1366
3.22 1442
3.24 1394
3.26 1334
3.28 1310
3.3 1267
3.32 1378
3.34 1309
3.36 1330
3.38 1237
3.4 1242
3.42 1218
3.44 1216
3.46 1240
3.48 1276
3.5 1150
3.52 1161
3.54 1103
3.56 1159
3.58 1177
3.6 1084
3.62 1189
3.64 1089
3.66 1141
3.68 1045
3.7 1056
3.72 1072
3.74 997
3.76 965
3.78 987
3.8 955
3.82 1048
3.84 1031
3.86 951
3.88 914
3.9 1005
3.92 916
3.94 944
3.96 936
3.98 906
4 916
4.02 981
4.04 863
4.06 911
4.08 903
4.1 928
4.12 896
4.14 897
4.16 838
4.18 887
4.2 874
4.22 846
4.24 847
4.26 821
4.28 842
4.3 853
4.32 828
4.34 815
4.36 836
4.38 826
4.4 741
4.42 813
4.44 844
4.46 807
4.48 815
4.5 816
4.52 863
4.54 789
4.56 834
4.58 816
4.6 776
4.62 805
4.64 815
4.66 821
4.68 775
4.7 765
4.72 783
4.74 832
4.76 794
4.78 763
4.8 802
4.82 832
4.84 872
4.86 847
4.88 846
4.9 874
4.92 889
4.94 945
4.96 912
4.98 897
5 954
5.02 947
5.04 995
5.06 1011
5.08 1096
5.1 1061
5.12 1147
5.14 1174
5.16 1220
5.18 1306
5.2 1367
5.22 1323
5.24 1489
5.26 1611
5.28 1671
5.3 1829
5.32 1968
5.34 2175
5.36 2361
5.38 2620
5.4 3014
5.42 3524
5.44 3912
5.46 4250
5.48 4179
5.5 3939
5.52 3394
5.54 2861
5.56 2377
5.58 2116
5.6 1950
5.62 1766
5.64 1604
5.66 1464
5.68 1434
5.7 1344
5.72 1335
5.74 1220
5.76 1185
5.78 1181
5.8 1124
5.82 1016
5.84 976
5.86 955
5.88 923
5.9 941
5.92 899
5.94 909
5.96 839
5.98 784
6 825
6.02 806
6.04 801
6.06 777
6.08 801
6.1 736
6.12 718
6.14 749
6.16 688
6.18 689
6.2 689
6.22 712
6.24 641
6.26 664
6.28 698
6.3 635
6.32 672
6.34 622
6.36 620
6.38 646
6.4 615
6.42 624
6.44 667
6.46 641
6.48 665
6.5 647
6.52 641
6.54 641
6.56 658
6.58 639
6.6 642
6.62 632
6.64 621
6.66 620
6.68 653
6.7 630
6.72 574
6.74 620
6.76 588
6.78 645
6.8 577
6.82 668
6.84 580
6.86 603
6.88 572
6.9 595
6.92 569
6.94 565
6.96 590
6.98 601
7 570
7.02 619
7.04 568
7.06 581
7.08 575
7.1 587
7.12 586
7.14 562
7.16 601
7.18 574
7.2 599
7.22 654
7.24 562
7.26 573
7.28 587
7.3 582
7.32 610
7.34 570
7.36 572
7.38 572
7.4 558
7.42 573
7.44 598
7.46 584
7.48 578
7.5 575
7.52 605
7.54 583
7.56 571
7.58 568
7.6 608
7.62 585
7.64 578
7.66 568
7.68 562
7.7 568
7.72 572
7.74 593
7.76 582
7.78 605
7.8 575
7.82 577
7.84 603
7.86 551
7.88 572
7.9 555
7.92 570
7.94 598
7.96 590
7.98 561
8 553
8.02 517
8.04 592
8.06 560
8.08 616
8.1 572
8.12 597
8.14 569
8.16 548
8.18 564
8.2 599
8.22 592
8.24 524
8.26 553
8.28 534
8.3 529
8.32 546
8.34 542
8.36 532
8.38 562
8.4 582
8.42 528
8.44 562
8.46 567
8.48 602
8.5 555
8.52 571
8.54 590
8.56 564
8.58 513
8.6 559
8.62 524
8.64 523
8.66 528
8.68 545
8.7 549
8.72 556
8.74 538
8.76 554
8.78 559
8.8 585
8.82 566
8.84 538
8.86 576
8.88 535
8.9 581
8.92 575
8.94 604
8.96 597
8.98 588
9 582
9.02 641
9.04 611
9.06 640
9.08 606
9.1 654
9.12 660
9.14 634
9.16 720
9.18 759
9.2 782
9.22 819
9.24 872
9.26 938
9.28 927
9.3 1074
9.32 1152
9.34 1396
9.36 1499
9.38 1486
9.4 1421
9.42 1278
9.44 1075
9.46 952
9.48 828
9.5 766
9.52 723
9.54 729
9.56 701
9.58 649
9.6 651
9.62 604
9.64 625
9.66 610
9.68 575
9.7 587
9.72 568
9.74 539
9.76 587
9.78 604
9.8 569
9.82 637
9.84 575
9.86 565
9.88 564
9.9 589
9.92 610
9.94 548
9.96 557
9.98 577
10 568
10.02 556
10.04 549
10.06 613
10.08 563
10.1 575
10.12 601
10.14 529
10.16 577
10.18 564
10.2 565
10.22 555
10.24 586
10.26 556
10.28 576
10.3 531
10.32 564
10.34 548
10.36 621
10.38 545
10.4 547
10.42 549
10.44 620
10.46 561
10.48 542
10.5 582
10.52 595
10.54 577
10.56 591
10.58 637
10.6 617
10.62 647
10.64 682
10.66 671
10.68 665
10.7 731
10.72 749
10.74 752
10.76 889
10.78 982
10.8 1001
10.82 1044
10.84 1077
10.86 979
10.88 994
10.9 900
10.92 891
10.94 766
10.96 829
10.98 750
11 766
11.02 783
11.04 700
11.06 671
11.08 641
11.1 636
11.12 627
11.14 631
11.16 573
11.18 617
11.2 565
11.22 598
11.24 588
11.26 518
11.28 525
11.3 552
11.32 599
11.34 541
11.36 575
11.38 584
11.4 626
11.42 550
11.44 535
11.46 565
11.48 569
11.5 532
11.52 548
11.54 517
11.56 486
11.58 570
11.6 559
11.62 562
11.64 588
11.66 544
11.68 575
11.7 595
11.72 552
11.74 526
11.76 566
11.78 556
11.8 558
11.82 545
11.84 542
11.86 546
11.88 501
11.9 528
11.92 524
11.94 541
11.96 547
11.98 559
12 539
12.02 549
12.04 560
12.06 528
12.08 585
12.1 536
12.12 536
12.14 517
12.16 547
12.18 593
12.2 564
12.22 605
12.24 579
12.26 618
12.28 597
12.3 612
12.32 612
12.34 642
12.36 615
12.38 601
12.4 622
12.42 629
12.44 534
12.46 641
12.48 601
12.5 599
12.52 577
12.54 567
12.56 552
12.58 554
12.6 613
12.62 588
12.64 562
12.66 564
12.68 540
12.7 569
12.72 544
12.74 542
12.76 524
12.78 563
12.8 590
12.82 585
12.84 576
12.86 537
12.88 564
12.9 615
12.92 586
12.94 581
12.96 552
12.98 606
13 565
13.02 602
13.04 599
13.06 609
13.08 591
13.1 597
13.12 584
13.14 556
13.16 560
13.18 597
13.2 538
13.22 571
13.24 541
13.26 603
13.28 626
13.3 597
13.32 565
13.34 626
13.36 579
13.38 602
13.4 610
13.42 580
13.44 629
13.46 615
13.48 579
13.5 588
13.52 635
13.54 596
13.56 627
13.58 553
13.6 614
13.62 580
13.64 556
13.66 579
13.68 599
13.7 609
13.72 609
13.74 583
13.76 632
13.78 603
13.8 602
13.82 635
13.84 596
13.86 543
13.88 609
13.9 588
13.92 591
13.94 585
13.96 600
13.98 583
14 568
14.02 634
14.04 648
14.06 606
14.08 559
14.1 608
14.12 596
14.14 603
14.16 593
14.18 621
14.2 622
14.22 587
14.24 634
14.26 626
14.28 686
14.3 606
14.32 619
14.34 697
14.36 631
14.38 635
14.4 642
14.42 609
14.44 650
14.46 623
14.48 657
14.5 623
14.52 653
14.54 647
14.56 589
14.58 671
14.6 582
14.62 604
14.64 619
14.66 623
14.68 616
14.7 632
14.72 603
14.74 651
14.76 628
14.78 616
14.8 625
14.82 652
14.84 656
14.86 607
14.88 635
14.9 574
14.92 674
14.94 633
14.96 642
14.98 620
15 619
15.02 613
15.04 630
15.06 640
15.08 668
15.1 693
15.12 638
15.14 638
15.16 632
15.18 643
15.2 647
15.22 639
15.24 669
15.26 632
15.28 651
15.3 664
15.32 657
15.34 649
15.36 651
15.38 665
15.4 650
15.42 656
15.44 653
15.46 645
15.48 678
15.5 649
15.52 674
15.54 662
15.56 629
15.58 682
15.6 652
15.62 672
15.64 718
15.66 679
15.68 681
15.7 703
15.72 727
15.74 650
15.76 675
15.78 672
15.8 684
15.82 674
15.84 705
15.86 715
15.88 658
15.9 690
15.92 661
15.94 637
15.96 709
15.98 742
16 681
16.02 708
16.04 689
16.06 642
16.08 667
16.1 663
16.12 691
16.14 719
16.16 736
16.18 696
16.2 724
16.22 718
16.24 688
16.26 718
16.28 727
16.3 763
16.32 721
16.34 714
16.36 706
16.38 785
16.4 770
16.42 664
16.44 756
16.46 709
16.48 745
16.5 686
16.52 718
16.54 720
16.56 737
16.58 792
16.6 710
16.62 751
16.64 754
16.66 765
16.68 738
16.7 741
16.72 782
16.74 778
16.76 763
16.78 826
16.8 785
16.82 772
16.84 817
16.86 816
16.88 826
16.9 852
16.92 890
16.94 869
16.96 886
16.98 959
17 987
17.02 994
17.04 983
17.06 1026
17.08 950
17.1 858
17.12 848
17.14 898
17.16 817
17.18 781
17.2 841
17.22 861
17.24 856
17.26 849
17.28 782
17.3 810
17.32 855
17.34 853
17.36 795
17.38 821
17.4 898
17.42 869
17.44 834
17.46 847
17.48 817
17.5 819
17.52 818
17.54 801
17.56 855
17.58 831
17.6 831
17.62 856
17.64 846
17.66 813
17.68 849
17.7 858
17.72 832
17.74 894
17.76 805
17.78 841
17.8 843
17.82 882
17.84 892
17.86 873
17.88 869
17.9 881
17.92 844
17.94 817
17.96 863
17.98 867
18 868
18.02 876
18.04 880
18.06 879
18.08 948
18.1 878
18.12 871
18.14 920
18.16 890
18.18 864
18.2 863
18.22 903
18.24 876
18.26 846
18.28 907
18.3 934
18.32 920
18.34 906
18.36 926
18.38 913
18.4 895
18.42 895
18.44 915
18.46 940
18.48 885
18.5 923
18.52 930
18.54 932
18.56 932
18.58 938
18.6 972
18.62 975
18.64 973
18.66 1018
18.68 1002
18.7 1033
18.72 1013
18.74 1014
18.76 1002
18.78 1031
18.8 962
18.82 955
18.84 975
18.86 1002
18.88 1035
18.9 1027
18.92 1024
18.94 989
18.96 1000
18.98 1038
19 1020
19.02 1028
19.04 1039
19.06 1014
19.08 1050
19.1 1054
19.12 1042
19.14 1003
19.16 1003
19.18 1035
19.2 1034
19.22 1066
19.24 1018
19.26 1027
19.28 1035
19.3 1085
19.32 1208
19.34 1054
19.36 1037
19.38 1112
19.4 1132
19.42 1124
19.44 1318
19.46 1239
19.48 1257
19.5 1310
19.52 1302
19.54 1272
19.56 1218
19.58 1265
19.6 1152
19.62 1215
19.64 1138
19.66 1164
19.68 1142
19.7 1096
19.72 1133
19.74 1149
19.76 1169
19.78 1120
19.8 1114
19.82 1143
19.84 1119
19.86 1121
19.88 1126
19.9 1082
19.92 1106
19.94 1129
19.96 1116
19.98 1116
20 1187