File: xrd-UiO-67/pxrddata/45-20.ASC
3 2234
3.02 2025
3.04 1874
3.06 1873
3.08 1672
3.1 1600
3.12 1583
3.14 1534
3.16 1564
3.18 1519
3.2 1504
3.22 1461
3.24 1388
3.26 1431
3.28 1437
3.3 1395
3.32 1338
3.34 1276
3.36 1352
3.38 1345
3.4 1313
3.42 1296
3.44 1306
3.46 1243
3.48 1215
3.5 1185
3.52 1258
3.54 1256
3.56 1195
3.58 1123
3.6 1143
3.62 1091
3.64 1135
3.66 1145
3.68 1128
3.7 1087
3.72 1088
3.74 1074
3.76 1079
3.78 1106
3.8 1008
3.82 1043
3.84 1030
3.86 1026
3.88 1031
3.9 995
3.92 972
3.94 993
3.96 960
3.98 924
4 970
4.02 951
4.04 919
4.06 889
4.08 910
4.1 942
4.12 926
4.14 938
4.16 921
4.18 924
4.2 898
4.22 888
4.24 912
4.26 849
4.28 832
4.3 877
4.32 828
4.34 876
4.36 820
4.38 820
4.4 831
4.42 761
4.44 828
4.46 815
4.48 808
4.5 815
4.52 774
4.54 793
4.56 770
4.58 773
4.6 784
4.62 775
4.64 783
4.66 790
4.68 752
4.7 783
4.72 773
4.74 774
4.76 738
4.78 748
4.8 709
4.82 738
4.84 725
4.86 700
4.88 742
4.9 710
4.92 692
4.94 717
4.96 722
4.98 747
5 708
5.02 673
5.04 711
5.06 702
5.08 673
5.1 698
5.12 727
5.14 669
5.16 705
5.18 720
5.2 686
5.22 708
5.24 681
5.26 679
5.28 714
5.3 696
5.32 690
5.34 675
5.36 707
5.38 707
5.4 715
5.42 662
5.44 707
5.46 669
5.48 643
5.5 633
5.52 624
5.54 648
5.56 688
5.58 642
5.6 605
5.62 647
5.64 674
5.66 640
5.68 689
5.7 674
5.72 646
5.74 658
5.76 664
5.78 673
5.8 656
5.82 638
5.84 651
5.86 643
5.88 627
5.9 674
5.92 624
5.94 628
5.96 651
5.98 670
6 616
6.02 673
6.04 611
6.06 626
6.08 618
6.1 632
6.12 644
6.14 606
6.16 634
6.18 690
6.2 599
6.22 656
6.24 656
6.26 624
6.28 649
6.3 639
6.32 624
6.34 655
6.36 621
6.38 648
6.4 619
6.42 660
6.44 657
6.46 696
6.48 679
6.5 634
6.52 672
6.54 686
6.56 650
6.58 631
6.6 610
6.62 665
6.64 643
6.66 669
6.68 636
6.7 652
6.72 648
6.74 640
6.76 642
6.78 610
6.8 653
6.82 637
6.84 624
6.86 633
6.88 603
6.9 601
6.92 605
6.94 590
6.96 635
6.98 627
7 677
7.02 610
7.04 680
7.06 633
7.08 681
7.1 651
7.12 659
7.14 604
7.16 626
7.18 620
7.2 620
7.22 631
7.24 677
7.26 673
7.28 631
7.3 620
7.32 673
7.34 624
7.36 652
7.38 637
7.4 611
7.42 607
7.44 640
7.46 646
7.48 669
7.5 628
7.52 629
7.54 656
7.56 646
7.58 645
7.6 683
7.62 650
7.64 658
7.66 631
7.68 710
7.7 677
7.72 689
7.74 664
7.76 703
7.78 600
7.8 732
7.82 703
7.84 691
7.86 715
7.88 702
7.9 678
7.92 758
7.94 731
7.96 730
7.98 698
8 671
8.02 684
8.04 660
8.06 663
8.08 675
8.1 711
8.12 689
8.14 746
8.16 728
8.18 724
8.2 729
8.22 680
8.24 687
8.26 736
8.28 744
8.3 705
8.32 725
8.34 771
8.36 779
8.38 702
8.4 755
8.42 775
8.44 754
8.46 766
8.48 793
8.5 796
8.52 779
8.54 789
8.56 804
8.58 799
8.6 812
8.62 854
8.64 816
8.66 841
8.68 828
8.7 849
8.72 892
8.74 872
8.76 900
8.78 904
8.8 949
8.82 1009
8.84 1015
8.86 1072
8.88 1078
8.9 1210
8.92 1270
8.94 1225
8.96 1204
8.98 1235
9 1206
9.02 1176
9.04 1209
9.06 1178
9.08 1092
9.1 1159
9.12 1082
9.14 1133
9.16 992
9.18 1082
9.2 1008
9.22 1056
9.24 1032
9.26 1065
9.28 1047
9.3 1041
9.32 1055
9.34 1058
9.36 1029
9.38 975
9.4 926
9.42 915
9.44 844
9.46 828
9.48 837
9.5 794
9.52 845
9.54 848
9.56 842
9.58 815
9.6 813
9.62 831
9.64 820
9.66 870
9.68 873
9.7 898
9.72 919
9.74 870
9.76 930
9.78 948
9.8 971
9.82 1047
9.84 1107
9.86 1155
9.88 1180
9.9 1237
9.92 1322
9.94 1390
9.96 1391
9.98 1308
10 1352
10.02 1259
10.04 1200
10.06 1105
10.08 1023
10.1 977
10.12 931
10.14 927
10.16 869
10.18 774
10.2 808
10.22 811
10.24 812
10.26 817
10.28 792
10.3 800
10.32 728
10.34 776
10.36 698
10.38 747
10.4 763
10.42 743
10.44 740
10.46 759
10.48 739
10.5 724
10.52 689
10.54 707
10.56 690
10.58 722
10.6 715
10.62 678
10.64 707
10.66 717
10.68 711
10.7 745
10.72 675
10.74 719
10.76 686
10.78 695
10.8 701
10.82 714
10.84 725
10.86 681
10.88 666
10.9 720
10.92 744
10.94 678
10.96 713
10.98 605
11 669
11.02 633
11.04 631
11.06 599
11.08 583
11.1 596
11.12 636
11.14 593
11.16 594
11.18 594
11.2 580
11.22 606
11.24 569
11.26 584
11.28 577
11.3 631
11.32 597
11.34 598
11.36 572
11.38 573
11.4 540
11.42 605
11.44 580
11.46 603
11.48 592
11.5 612
11.52 593
11.54 564
11.56 579
11.58 577
11.6 571
11.62 538
11.64 590
11.66 587
11.68 574
11.7 583
11.72 531
11.74 609
11.76 586
11.78 592
11.8 545
11.82 616
11.84 586
11.86 605
11.88 601
11.9 571
11.92 587
11.94 526
11.96 549
11.98 527
12 558
12.02 540
12.04 582
12.06 587
12.08 579
12.1 580
12.12 600
12.14 601
12.16 583
12.18 595
12.2 573
12.22 564
12.24 617
12.26 591
12.28 569
12.3 615
12.32 569
12.34 613
12.36 601
12.38 641
12.4 657
12.42 665
12.44 653
12.46 669
12.48 704
12.5 757
12.52 764
12.54 823
12.56 837
12.58 915
12.6 918
12.62 885
12.64 950
12.66 886
12.68 936
12.7 861
12.72 824
12.74 801
12.76 725
12.78 702
12.8 662
12.82 676
12.84 637
12.86 661
12.88 676
12.9 648
12.92 640
12.94 647
12.96 627
12.98 641
13 652
13.02 629
13.04 625
13.06 658
13.08 598
13.1 637
13.12 600
13.14 618
13.16 619
13.18 617
13.2 616
13.22 646
13.24 621
13.26 676
13.28 624
13.3 643
13.32 599
13.34 609
13.36 645
13.38 641
13.4 651
13.42 588
13.44 605
13.46 609
13.48 627
13.5 636
13.52 617
13.54 611
13.56 623
13.58 589
13.6 595
13.62 613
13.64 620
13.66 636
13.68 622
13.7 603
13.72 590
13.74 637
13.76 608
13.78 669
13.8 636
13.82 648
13.84 646
13.86 637
13.88 619
13.9 604
13.92 667
13.94 650
13.96 682
13.98 647
14 646
14.02 646
14.04 627
14.06 653
14.08 611
14.1 648
14.12 622
14.14 636
14.16 627
14.18 657
14.2 662
14.22 650
14.24 634
14.26 650
14.28 656
14.3 670
14.32 639
14.34 675
14.36 661
14.38 643
14.4 648
14.42 682
14.44 703
14.46 702
14.48 652
14.5 683
14.52 653
14.54 675
14.56 637
14.58 691
14.6 664
14.62 682
14.64 649
14.66 650
14.68 624
14.7 650
14.72 652
14.74 635
14.76 675
14.78 648
14.8 610
14.82 641
14.84 636
14.86 637
14.88 643
14.9 669
14.92 649
14.94 668
14.96 654
14.98 663
15 677
15.02 652
15.04 676
15.06 667
15.08 727
15.1 711
15.12 677
15.14 695
15.16 683
15.18 633
15.2 715
15.22 688
15.24 691
15.26 677
15.28 676
15.3 675
15.32 628
15.34 682
15.36 696
15.38 688
15.4 692
15.42 679
15.44 669
15.46 665
15.48 675
15.5 665
15.52 694
15.54 712
15.56 680
15.58 674
15.6 694
15.62 726
15.64 701
15.66 676
15.68 655
15.7 671
15.72 738
15.74 712
15.76 722
15.78 689
15.8 754
15.82 692
15.84 693
15.86 740
15.88 764
15.9 766
15.92 735
15.94 733
15.96 689
15.98 695
16 718
16.02 685
16.04 719
16.06 738
16.08 724
16.1 753
16.12 710
16.14 692
16.16 716
16.18 713
16.2 739
16.22 740
16.24 739
16.26 742
16.28 717
16.3 789
16.32 780
16.34 736
16.36 724
16.38 730
16.4 746
16.42 789
16.44 760
16.46 782
16.48 814
16.5 753
16.52 788
16.54 786
16.56 770
16.58 827
16.6 761
16.62 816
16.64 787
16.66 794
16.68 804
16.7 800
16.72 839
16.74 867
16.76 838
16.78 855
16.8 899
16.82 898
16.84 898
16.86 989
16.88 1052
16.9 1151
16.92 1210
16.94 1160
16.96 1254
16.98 1273
17 1167
17.02 1103
17.04 1090
17.06 993
17.08 912
17.1 851
17.12 827
17.14 867
17.16 830
17.18 857
17.2 798
17.22 838
17.24 791
17.26 864
17.28 852
17.3 851
17.32 869
17.34 859
17.36 838
17.38 887
17.4 821
17.42 866
17.44 859
17.46 863
17.48 837
17.5 900
17.52 901
17.54 865
17.56 878
17.58 861
17.6 893
17.62 866
17.64 861
17.66 911
17.68 891
17.7 938
17.72 887
17.74 905
17.76 852
17.78 896
17.8 916
17.82 895
17.84 936
17.86 897
17.88 914
17.9 896
17.92 926
17.94 960
17.96 909
17.98 971
18 933
18.02 996
18.04 967
18.06 932
18.08 983
18.1 1004
18.12 968
18.14 957
18.16 959
18.18 989
18.2 1003
18.22 1013
18.24 1016
18.26 976
18.28 1038
18.3 960
18.32 945
18.34 976
18.36 955
18.38 1033
18.4 1031
18.42 957
18.44 1032
18.46 994
18.48 976
18.5 1014
18.52 1012
18.54 988
18.56 986
18.58 1011
18.6 1031
18.62 1012
18.64 1036
18.66 1000
18.68 1043
18.7 1016
18.72 1018
18.74 991
18.76 988
18.78 999
18.8 988
18.82 985
18.84 1031
18.86 1046
18.88 1003
18.9 993
18.92 1021
18.94 1054
18.96 1050
18.98 1050
19 1030
19.02 1028
19.04 1056
19.06 1073
19.08 1022
19.1 1030
19.12 1042
19.14 1047
19.16 1055
19.18 1055
19.2 1063
19.22 1043
19.24 1088
19.26 1073
19.28 1082
19.3 1097
19.32 1088
19.34 1089
19.36 1065
19.38 1109
19.4 1127
19.42 1045
19.44 1108
19.46 1137
19.48 1117
19.5 1144
19.52 1147
19.54 1160
19.56 1128
19.58 1114
19.6 1138
19.62 1129
19.64 1186
19.66 1161
19.68 1183
19.7 1182
19.72 1123
19.74 1163
19.76 1166
19.78 1185
19.8 1271
19.82 1268
19.84 1314
19.86 1289
19.88 1289
19.9 1290
19.92 1388
19.94 1331
19.96 1297
19.98 1319
20 1320