File: xrd-UiO-67/pxrddata/45-27.ASC
3 2499
3.02 2271
3.04 2138
3.06 2145
3.08 1984
3.1 1936
3.12 1852
3.14 1830
3.16 1764
3.18 1795
3.2 1756
3.22 1700
3.24 1752
3.26 1659
3.28 1666
3.3 1600
3.32 1623
3.34 1592
3.36 1598
3.38 1600
3.4 1550
3.42 1590
3.44 1660
3.46 1633
3.48 1571
3.5 1505
3.52 1527
3.54 1580
3.56 1565
3.58 1529
3.6 1492
3.62 1506
3.64 1423
3.66 1462
3.68 1485
3.7 1437
3.72 1446
3.74 1420
3.76 1484
3.78 1365
3.8 1374
3.82 1394
3.84 1377
3.86 1406
3.88 1441
3.9 1377
3.92 1369
3.94 1399
3.96 1377
3.98 1356
4 1334
4.02 1361
4.04 1378
4.06 1349
4.08 1321
4.1 1380
4.12 1365
4.14 1317
4.16 1365
4.18 1307
4.2 1339
4.22 1310
4.24 1299
4.26 1328
4.28 1348
4.3 1357
4.32 1360
4.34 1407
4.36 1372
4.38 1368
4.4 1355
4.42 1324
4.44 1405
4.46 1380
4.48 1292
4.5 1244
4.52 1364
4.54 1295
4.56 1277
4.58 1299
4.6 1271
4.62 1367
4.64 1259
4.66 1335
4.68 1297
4.7 1356
4.72 1341
4.74 1347
4.76 1382
4.78 1368
4.8 1295
4.82 1390
4.84 1403
4.86 1354
4.88 1393
4.9 1340
4.92 1400
4.94 1386
4.96 1416
4.98 1431
5 1368
5.02 1435
5.04 1455
5.06 1494
5.08 1515
5.1 1512
5.12 1555
5.14 1577
5.16 1547
5.18 1505
5.2 1602
5.22 1619
5.24 1643
5.26 1751
5.28 1713
5.3 1722
5.32 1808
5.34 1873
5.36 1900
5.38 2052
5.4 2151
5.42 2204
5.44 2315
5.46 2253
5.48 2223
5.5 2059
5.52 1860
5.54 1703
5.56 1664
5.58 1610
5.6 1630
5.62 1519
5.64 1488
5.66 1434
5.68 1417
5.7 1447
5.72 1389
5.74 1405
5.76 1287
5.78 1346
5.8 1335
5.82 1356
5.84 1320
5.86 1291
5.88 1275
5.9 1282
5.92 1231
5.94 1267
5.96 1267
5.98 1277
6 1263
6.02 1254
6.04 1198
6.06 1138
6.08 1205
6.1 1176
6.12 1219
6.14 1136
6.16 1243
6.18 1165
6.2 1200
6.22 1201
6.24 1167
6.26 1099
6.28 1158
6.3 1134
6.32 1148
6.34 1136
6.36 1132
6.38 1121
6.4 1135
6.42 1136
6.44 1159
6.46 1118
6.48 1105
6.5 1167
6.52 1084
6.54 1163
6.56 1150
6.58 1115
6.6 1127
6.62 1186
6.64 1162
6.66 1108
6.68 1052
6.7 1154
6.72 1117
6.74 1126
6.76 1156
6.78 1160
6.8 1055
6.82 1082
6.84 1130
6.86 1112
6.88 1041
6.9 1138
6.92 1096
6.94 1086
6.96 1104
6.98 1052
7 1083
7.02 1081
7.04 1081
7.06 1039
7.08 1077
7.1 1089
7.12 1072
7.14 1134
7.16 1136
7.18 1051
7.2 1095
7.22 1056
7.24 1085
7.26 1061
7.28 1039
7.3 1122
7.32 1062
7.34 1088
7.36 1061
7.38 1091
7.4 1084
7.42 1056
7.44 1113
7.46 1036
7.48 1044
7.5 1067
7.52 1094
7.54 1054
7.56 1084
7.58 1032
7.6 1024
7.62 1080
7.64 1090
7.66 939
7.68 1016
7.7 978
7.72 998
7.74 1066
7.76 999
7.78 1059
7.8 1030
7.82 1002
7.84 1071
7.86 1072
7.88 1067
7.9 1039
7.92 1031
7.94 1096
7.96 1045
7.98 1074
8 996
8.02 1056
8.04 1012
8.06 1007
8.08 991
8.1 1020
8.12 997
8.14 984
8.16 1081
8.18 1035
8.2 1084
8.22 999
8.24 977
8.26 981
8.28 1061
8.3 1015
8.32 1026
8.34 1023
8.36 1065
8.38 1000
8.4 1002
8.42 1059
8.44 1056
8.46 1005
8.48 1039
8.5 1036
8.52 1051
8.54 1038
8.56 1083
8.58 1066
8.6 1088
8.62 1047
8.64 1133
8.66 1101
8.68 1103
8.7 1049
8.72 1078
8.74 1122
8.76 1154
8.78 1105
8.8 1118
8.82 1142
8.84 1160
8.86 1173
8.88 1158
8.9 1131
8.92 1092
8.94 1193
8.96 1103
8.98 1180
9 1138
9.02 1098
9.04 1154
9.06 1169
9.08 1118
9.1 1140
9.12 1117
9.14 1101
9.16 1194
9.18 1227
9.2 1200
9.22 1227
9.24 1261
9.26 1295
9.28 1246
9.3 1280
9.32 1317
9.34 1417
9.36 1472
9.38 1520
9.4 1521
9.42 1489
9.44 1315
9.46 1297
9.48 1290
9.5 1154
9.52 1174
9.54 1125
9.56 1124
9.58 1145
9.6 1141
9.62 1091
9.64 1110
9.66 1096
9.68 1101
9.7 1119
9.72 1112
9.74 1050
9.76 1043
9.78 1091
9.8 1049
9.82 1014
9.84 1017
9.86 1085
9.88 1054
9.9 983
9.92 1032
9.94 1088
9.96 1057
9.98 1082
10 1031
10.02 1030
10.04 1030
10.06 990
10.08 990
10.1 1082
10.12 1055
10.14 998
10.16 1045
10.18 996
10.2 1071
10.22 1039
10.24 991
10.26 1054
10.28 1005
10.3 1024
10.32 1001
10.34 1011
10.36 1033
10.38 1049
10.4 1067
10.42 1044
10.44 1083
10.46 992
10.48 1085
10.5 1045
10.52 979
10.54 972
10.56 1011
10.58 1054
10.6 1030
10.62 1033
10.64 1033
10.66 1085
10.68 1034
10.7 1029
10.72 1056
10.74 1013
10.76 997
10.78 1029
10.8 1065
10.82 1014
10.84 1087
10.86 1114
10.88 1099
10.9 1105
10.92 1087
10.94 1064
10.96 1050
10.98 1048
11 1064
11.02 1062
11.04 963
11.06 1012
11.08 993
11.1 968
11.12 975
11.14 1000
11.16 935
11.18 1016
11.2 998
11.22 1008
11.24 1019
11.26 977
11.28 979
11.3 977
11.32 1004
11.34 964
11.36 932
11.38 971
11.4 970
11.42 984
11.44 1006
11.46 1019
11.48 988
11.5 1069
11.52 1016
11.54 1008
11.56 974
11.58 960
11.6 951
11.62 999
11.64 938
11.66 955
11.68 984
11.7 933
11.72 995
11.74 958
11.76 949
11.78 929
11.8 948
11.82 975
11.84 1025
11.86 969
11.88 947
11.9 954
11.92 978
11.94 936
11.96 1006
11.98 995
12 984
12.02 953
12.04 959
12.06 1034
12.08 978
12.1 957
12.12 947
12.14 973
12.16 938
12.18 944
12.2 945
12.22 1004
12.24 957
12.26 1011
12.28 919
12.3 941
12.32 949
12.34 977
12.36 944
12.38 979
12.4 931
12.42 955
12.44 993
12.46 964
12.48 982
12.5 967
12.52 977
12.54 985
12.56 966
12.58 926
12.6 1005
12.62 1010
12.64 1042
12.66 944
12.68 1029
12.7 1008
12.72 966
12.74 982
12.76 925
12.78 950
12.8 963
12.82 970
12.84 1071
12.86 921
12.88 937
12.9 961
12.92 991
12.94 950
12.96 979
12.98 982
13 995
13.02 987
13.04 988
13.06 973
13.08 1014
13.1 1006
13.12 1017
13.14 986
13.16 991
13.18 973
13.2 993
13.22 998
13.24 982
13.26 978
13.28 964
13.3 1005
13.32 968
13.34 928
13.36 925
13.38 979
13.4 1028
13.42 1037
13.44 962
13.46 993
13.48 965
13.5 1021
13.52 972
13.54 949
13.56 1020
13.58 970
13.6 986
13.62 979
13.64 1021
13.66 1039
13.68 981
13.7 1020
13.72 1001
13.74 988
13.76 1044
13.78 989
13.8 1000
13.82 985
13.84 971
13.86 976
13.88 1049
13.9 1027
13.92 1002
13.94 1012
13.96 982
13.98 1041
14 979
14.02 1002
14.04 1010
14.06 1051
14.08 1044
14.1 1087
14.12 1036
14.14 1040
14.16 1041
14.18 988
14.2 1042
14.22 1015
14.24 1036
14.26 1055
14.28 1061
14.3 1056
14.32 1077
14.34 1123
14.36 1038
14.38 1029
14.4 1053
14.42 1035
14.44 1007
14.46 1051
14.48 1055
14.5 997
14.52 1049
14.54 1092
14.56 1077
14.58 1045
14.6 1020
14.62 1002
14.64 1076
14.66 1121
14.68 991
14.7 1037
14.72 1051
14.74 1054
14.76 1033
14.78 1073
14.8 1010
14.82 1007
14.84 1011
14.86 1045
14.88 1023
14.9 1052
14.92 985
14.94 1091
14.96 1008
14.98 1036
15 1085
15.02 1048
15.04 1058
15.06 1037
15.08 1045
15.1 1037
15.12 1024
15.14 996
15.16 1051
15.18 1063
15.2 1088
15.22 1002
15.24 1008
15.26 1062
15.28 1079
15.3 1063
15.32 1132
15.34 1068
15.36 1111
15.38 1049
15.4 1098
15.42 1032
15.44 1027
15.46 1053
15.48 1075
15.5 1112
15.52 1138
15.54 1100
15.56 1085
15.58 1132
15.6 1078
15.62 1045
15.64 1094
15.66 1004
15.68 1087
15.7 1075
15.72 1121
15.74 1097
15.76 1099
15.78 1096
15.8 1096
15.82 1102
15.84 1101
15.86 1127
15.88 1112
15.9 1084
15.92 1120
15.94 1063
15.96 1164
15.98 1083
16 1112
16.02 1093
16.04 1107
16.06 1123
16.08 1110
16.1 1135
16.12 1135
16.14 1140
16.16 1134
16.18 1111
16.2 1119
16.22 1186
16.24 1114
16.26 1148
16.28 1227
16.3 1145
16.32 1187
16.34 1170
16.36 1231
16.38 1145
16.4 1185
16.42 1184
16.44 1164
16.46 1220
16.48 1187
16.5 1175
16.52 1280
16.54 1339
16.56 1176
16.58 1201
16.6 1224
16.62 1199
16.64 1184
16.66 1251
16.68 1220
16.7 1230
16.72 1309
16.74 1277
16.76 1323
16.78 1383
16.8 1349
16.82 1447
16.84 1484
16.86 1518
16.88 1642
16.9 1727
16.92 1866
16.94 2022
16.96 2127
16.98 2292
17 2330
17.02 2275
17.04 2100
17.06 1940
17.08 1707
17.1 1477
17.12 1376
17.14 1364
17.16 1337
17.18 1372
17.2 1332
17.22 1272
17.24 1263
17.26 1290
17.28 1277
17.3 1290
17.32 1255
17.34 1266
17.36 1322
17.38 1290
17.4 1348
17.42 1297
17.44 1328
17.46 1370
17.48 1365
17.5 1326
17.52 1337
17.54 1312
17.56 1341
17.58 1341
17.6 1339
17.62 1437
17.64 1337
17.66 1339
17.68 1347
17.7 1359
17.72 1351
17.74 1354
17.76 1382
17.78 1422
17.8 1427
17.82 1324
17.84 1400
17.86 1358
17.88 1382
17.9 1414
17.92 1410
17.94 1404
17.96 1367
17.98 1319
18 1380
18.02 1492
18.04 1454
18.06 1425
18.08 1466
18.1 1393
18.12 1371
18.14 1415
18.16 1436
18.18 1448
18.2 1454
18.22 1420
18.24 1423
18.26 1505
18.28 1461
18.3 1422
18.32 1441
18.34 1502
18.36 1480
18.38 1520
18.4 1506
18.42 1467
18.44 1490
18.46 1515
18.48 1492
18.5 1489
18.52 1502
18.54 1487
18.56 1520
18.58 1469
18.6 1483
18.62 1489
18.64 1492
18.66 1570
18.68 1499
18.7 1572
18.72 1583
18.74 1560
18.76 1542
18.78 1567
18.8 1534
18.82 1589
18.84 1619
18.86 1553
18.88 1581
18.9 1557
18.92 1596
18.94 1533
18.96 1612
18.98 1662
19 1629
19.02 1599
19.04 1633
19.06 1633
19.08 1591
19.1 1529
19.12 1609
19.14 1559
19.16 1651
19.18 1638
19.2 1683
19.22 1620
19.24 1613
19.26 1641
19.28 1620
19.3 1646
19.32 1680
19.34 1659
19.36 1611
19.38 1675
19.4 1717
19.42 1689
19.44 1708
19.46 1623
19.48 1663
19.5 1656
19.52 1655
19.54 1694
19.56 1719
19.58 1696
19.6 1749
19.62 1767
19.64 1746
19.66 1710
19.68 1770
19.7 1737
19.72 1749
19.74 1735
19.76 1707
19.78 1822
19.8 1755
19.82 1814
19.84 1750
19.86 1791
19.88 1796
19.9 1746
19.92 1786
19.94 1807
19.96 1757
19.98 1751
20 1788