File: xrd-UiO-67/pxrddata/45-2.ASC
3 2214
3.02 2014
3.04 1873
3.06 1812
3.08 1648
3.1 1587
3.12 1527
3.14 1415
3.16 1406
3.18 1424
3.2 1457
3.22 1349
3.24 1292
3.26 1333
3.28 1305
3.3 1263
3.32 1282
3.34 1348
3.36 1208
3.38 1229
3.4 1225
3.42 1175
3.44 1267
3.46 1194
3.48 1156
3.5 1150
3.52 1087
3.54 1097
3.56 1104
3.58 1087
3.6 1069
3.62 1085
3.64 1011
3.66 1117
3.68 1063
3.7 1049
3.72 1028
3.74 969
3.76 981
3.78 958
3.8 1018
3.82 940
3.84 951
3.86 968
3.88 959
3.9 906
3.92 976
3.94 970
3.96 918
3.98 999
4 936
4.02 958
4.04 965
4.06 984
4.08 928
4.1 950
4.12 969
4.14 872
4.16 883
4.18 888
4.2 844
4.22 793
4.24 846
4.26 780
4.28 741
4.3 774
4.32 758
4.34 752
4.36 780
4.38 747
4.4 703
4.42 709
4.44 747
4.46 763
4.48 747
4.5 741
4.52 735
4.54 719
4.56 742
4.58 720
4.6 662
4.62 711
4.64 661
4.66 684
4.68 706
4.7 648
4.72 664
4.74 690
4.76 653
4.78 647
4.8 712
4.82 676
4.84 672
4.86 636
4.88 639
4.9 652
4.92 678
4.94 625
4.96 700
4.98 701
5 651
5.02 696
5.04 686
5.06 654
5.08 631
5.1 674
5.12 685
5.14 692
5.16 767
5.18 705
5.2 734
5.22 748
5.24 735
5.26 791
5.28 794
5.3 773
5.32 880
5.34 886
5.36 951
5.38 971
5.4 1029
5.42 1021
5.44 980
5.46 927
5.48 925
5.5 862
5.52 919
5.54 898
5.56 978
5.58 1028
5.6 1056
5.62 1126
5.64 1197
5.66 1277
5.68 1384
5.7 1518
5.72 1808
5.74 2099
5.76 2154
5.78 2180
5.8 1879
5.82 1410
5.84 1145
5.86 890
5.88 728
5.9 690
5.92 668
5.94 628
5.96 683
5.98 581
6 589
6.02 601
6.04 644
6.06 579
6.08 637
6.1 644
6.12 591
6.14 598
6.16 575
6.18 603
6.2 652
6.22 627
6.24 613
6.26 636
6.28 593
6.3 609
6.32 622
6.34 612
6.36 613
6.38 621
6.4 604
6.42 613
6.44 657
6.46 622
6.48 648
6.5 645
6.52 644
6.54 697
6.56 716
6.58 714
6.6 772
6.62 780
6.64 811
6.66 754
6.68 741
6.7 737
6.72 702
6.74 749
6.76 654
6.78 694
6.8 618
6.82 627
6.84 591
6.86 589
6.88 567
6.9 560
6.92 575
6.94 562
6.96 529
6.98 543
7 561
7.02 546
7.04 527
7.06 539
7.08 529
7.1 514
7.12 539
7.14 520
7.16 567
7.18 609
7.2 546
7.22 515
7.24 487
7.26 549
7.28 558
7.3 525
7.32 546
7.34 513
7.36 573
7.38 523
7.4 531
7.42 549
7.44 543
7.46 540
7.48 569
7.5 588
7.52 525
7.54 561
7.56 516
7.58 547
7.6 528
7.62 547
7.64 514
7.66 557
7.68 517
7.7 498
7.72 569
7.74 539
7.76 525
7.78 526
7.8 580
7.82 534
7.84 509
7.86 551
7.88 556
7.9 514
7.92 552
7.94 544
7.96 520
7.98 567
8 545
8.02 563
8.04 556
8.06 573
8.08 526
8.1 573
8.12 569
8.14 553
8.16 574
8.18 527
8.2 555
8.22 549
8.24 549
8.26 511
8.28 543
8.3 509
8.32 533
8.34 531
8.36 540
8.38 525
8.4 522
8.42 523
8.44 542
8.46 540
8.48 504
8.5 541
8.52 539
8.54 512
8.56 537
8.58 530
8.6 540
8.62 539
8.64 562
8.66 534
8.68 501
8.7 516
8.72 541
8.74 515
8.76 533
8.78 557
8.8 494
8.82 551
8.84 516
8.86 546
8.88 500
8.9 613
8.92 562
8.94 541
8.96 565
8.98 555
9 595
9.02 607
9.04 618
9.06 636
9.08 616
9.1 630
9.12 670
9.14 682
9.16 684
9.18 749
9.2 775
9.22 835
9.24 905
9.26 1047
9.28 1257
9.3 1320
9.32 1322
9.34 1151
9.36 940
9.38 907
9.4 796
9.42 679
9.44 664
9.46 622
9.48 515
9.5 568
9.52 542
9.54 511
9.56 565
9.58 545
9.6 601
9.62 540
9.64 574
9.66 549
9.68 511
9.7 530
9.72 541
9.74 576
9.76 581
9.78 569
9.8 528
9.82 529
9.84 551
9.86 573
9.88 565
9.9 565
9.92 583
9.94 550
9.96 555
9.98 530
10 541
10.02 579
10.04 572
10.06 639
10.08 622
10.1 655
10.12 672
10.14 736
10.16 698
10.18 696
10.2 671
10.22 572
10.24 574
10.26 586
10.28 554
10.3 522
10.32 535
10.34 478
10.36 552
10.38 574
10.4 542
10.42 551
10.44 510
10.46 509
10.48 501
10.5 525
10.52 540
10.54 574
10.56 549
10.58 563
10.6 556
10.62 593
10.64 603
10.66 607
10.68 669
10.7 654
10.72 748
10.74 729
10.76 720
10.78 748
10.8 756
10.82 757
10.84 763
10.86 794
10.88 894
10.9 1040
10.92 1165
10.94 1144
10.96 1040
10.98 943
11 813
11.02 757
11.04 656
11.06 663
11.08 564
11.1 575
11.12 552
11.14 541
11.16 565
11.18 540
11.2 561
11.22 583
11.24 569
11.26 572
11.28 575
11.3 579
11.32 588
11.34 600
11.36 646
11.38 628
11.4 700
11.42 749
11.44 798
11.46 823
11.48 797
11.5 744
11.52 698
11.54 669
11.56 623
11.58 637
11.6 560
11.62 554
11.64 515
11.66 551
11.68 529
11.7 501
11.72 520
11.74 541
11.76 502
11.78 535
11.8 495
11.82 544
11.84 505
11.86 523
11.88 529
11.9 549
11.92 513
11.94 533
11.96 542
11.98 545
12 543
12.02 571
12.04 539
12.06 531
12.08 528
12.1 567
12.12 608
12.14 589
12.16 628
12.18 590
12.2 644
12.22 576
12.24 558
12.26 598
12.28 509
12.3 573
12.32 555
12.34 559
12.36 525
12.38 514
12.4 503
12.42 552
12.44 590
12.46 530
12.48 530
12.5 499
12.52 533
12.54 508
12.56 489
12.58 500
12.6 539
12.62 528
12.64 513
12.66 505
12.68 535
12.7 544
12.72 530
12.74 532
12.76 546
12.78 576
12.8 555
12.82 546
12.84 528
12.86 538
12.88 554
12.9 537
12.92 572
12.94 520
12.96 497
12.98 523
13 484
13.02 542
13.04 540
13.06 496
13.08 537
13.1 540
13.12 514
13.14 531
13.16 566
13.18 595
13.2 547
13.22 594
13.24 611
13.26 556
13.28 560
13.3 584
13.32 552
13.34 585
13.36 538
13.38 536
13.4 549
13.42 571
13.44 581
13.46 590
13.48 559
13.5 505
13.52 546
13.54 591
13.56 510
13.58 512
13.6 514
13.62 525
13.64 567
13.66 530
13.68 545
13.7 592
13.72 549
13.74 566
13.76 546
13.78 509
13.8 525
13.82 546
13.84 551
13.86 551
13.88 551
13.9 557
13.92 520
13.94 560
13.96 543
13.98 563
14 543
14.02 565
14.04 551
14.06 544
14.08 546
14.1 553
14.12 596
14.14 592
14.16 587
14.18 571
14.2 596
14.22 621
14.24 616
14.26 630
14.28 603
14.3 621
14.32 610
14.34 634
14.36 632
14.38 632
14.4 662
14.42 580
14.44 585
14.46 610
14.48 602
14.5 644
14.52 605
14.54 582
14.56 607
14.58 586
14.6 596
14.62 623
14.64 631
14.66 583
14.68 612
14.7 570
14.72 585
14.74 633
14.76 635
14.78 649
14.8 610
14.82 680
14.84 621
14.86 620
14.88 650
14.9 629
14.92 568
14.94 580
14.96 594
14.98 604
15 577
15.02 607
15.04 614
15.06 602
15.08 621
15.1 627
15.12 569
15.14 640
15.16 669
15.18 609
15.2 653
15.22 613
15.24 626
15.26 638
15.28 626
15.3 614
15.32 603
15.34 610
15.36 631
15.38 635
15.4 608
15.42 600
15.44 623
15.46 613
15.48 653
15.5 645
15.52 642
15.54 607
15.56 618
15.58 672
15.6 635
15.62 587
15.64 625
15.66 624
15.68 634
15.7 597
15.72 641
15.74 635
15.76 606
15.78 652
15.8 600
15.82 651
15.84 623
15.86 657
15.88 618
15.9 634
15.92 637
15.94 641
15.96 627
15.98 629
16 651
16.02 673
16.04 693
16.06 665
16.08 633
16.1 687
16.12 692
16.14 695
16.16 709
16.18 705
16.2 744
16.22 702
16.24 738
16.26 698
16.28 657
16.3 683
16.32 680
16.34 721
16.36 720
16.38 694
16.4 715
16.42 717
16.44 686
16.46 743
16.48 687
16.5 685
16.52 700
16.54 723
16.56 656
16.58 663
16.6 735
16.62 703
16.64 717
16.66 647
16.68 645
16.7 719
16.72 754
16.74 687
16.76 697
16.78 713
16.8 721
16.82 752
16.84 702
16.86 740
16.88 807
16.9 821
16.92 890
16.94 864
16.96 862
16.98 850
17 849
17.02 799
17.04 774
17.06 776
17.08 768
17.1 745
17.12 819
17.14 777
17.16 783
17.18 808
17.2 801
17.22 878
17.24 781
17.26 778
17.28 839
17.3 875
17.32 808
17.34 780
17.36 797
17.38 766
17.4 777
17.42 746
17.44 774
17.46 761
17.48 816
17.5 760
17.52 810
17.54 805
17.56 802
17.58 781
17.6 773
17.62 782
17.64 765
17.66 763
17.68 785
17.7 838
17.72 786
17.74 799
17.76 800
17.78 830
17.8 796
17.82 914
17.84 820
17.86 817
17.88 802
17.9 838
17.92 841
17.94 767
17.96 796
17.98 803
18 839
18.02 832
18.04 849
18.06 832
18.08 782
18.1 800
18.12 888
18.14 840
18.16 806
18.18 796
18.2 801
18.22 860
18.24 848
18.26 831
18.28 835
18.3 843
18.32 876
18.34 860
18.36 791
18.38 884
18.4 925
18.42 831
18.44 887
18.46 820
18.48 852
18.5 871
18.52 886
18.54 920
18.56 867
18.58 929
18.6 961
18.62 873
18.64 908
18.66 956
18.68 925
18.7 1002
18.72 954
18.74 968
18.76 946
18.78 956
18.8 935
18.82 882
18.84 904
18.86 973
18.88 988
18.9 984
18.92 975
18.94 918
18.96 912
18.98 948
19 936
19.02 1008
19.04 1064
19.06 1119
19.08 1152
19.1 1136
19.12 1144
19.14 1122
19.16 1058
19.18 1020
19.2 972
19.22 1039
19.24 968
19.26 946
19.28 946
19.3 993
19.32 1029
19.34 1028
19.36 1019
19.38 1155
19.4 1139
19.42 1059
19.44 1166
19.46 1143
19.48 1201
19.5 1255
19.52 1276
19.54 1281
19.56 1227
19.58 1248
19.6 1161
19.62 1097
19.64 1104
19.66 1035
19.68 1041
19.7 1076
19.72 1044
19.74 1073
19.76 1104
19.78 1119
19.8 1190
19.82 1250
19.84 1268
19.86 1253
19.88 1224
19.9 1233
19.92 1129
19.94 1146
19.96 1113
19.98 1106
20 1043