File: xrd-UiO-67/pxrddata/45-3.ASC
3 2612
3.02 2473
3.04 2386
3.06 2183
3.08 2052
3.1 1983
3.12 1885
3.14 1855
3.16 1742
3.18 1779
3.2 1734
3.22 1786
3.24 1693
3.26 1658
3.28 1592
3.3 1656
3.32 1560
3.34 1544
3.36 1484
3.38 1480
3.4 1488
3.42 1443
3.44 1463
3.46 1498
3.48 1381
3.5 1380
3.52 1325
3.54 1368
3.56 1349
3.58 1270
3.6 1334
3.62 1315
3.64 1281
3.66 1263
3.68 1303
3.7 1279
3.72 1266
3.74 1224
3.76 1196
3.78 1199
3.8 1149
3.82 1205
3.84 1202
3.86 1198
3.88 1141
3.9 1202
3.92 1180
3.94 1099
3.96 1099
3.98 1135
4 1136
4.02 1092
4.04 1169
4.06 1142
4.08 1171
4.1 1270
4.12 1191
4.14 1157
4.16 1032
4.18 951
4.2 994
4.22 929
4.24 903
4.26 942
4.28 902
4.3 894
4.32 908
4.34 850
4.36 893
4.38 903
4.4 882
4.42 886
4.44 878
4.46 853
4.48 877
4.5 856
4.52 851
4.54 806
4.56 889
4.58 841
4.6 787
4.62 780
4.64 826
4.66 813
4.68 753
4.7 828
4.72 811
4.74 823
4.76 809
4.78 781
4.8 781
4.82 825
4.84 788
4.86 788
4.88 763
4.9 821
4.92 757
4.94 793
4.96 741
4.98 815
5 783
5.02 818
5.04 762
5.06 812
5.08 794
5.1 831
5.12 789
5.14 830
5.16 810
5.18 795
5.2 833
5.22 847
5.24 873
5.26 828
5.28 801
5.3 832
5.32 900
5.34 888
5.36 973
5.38 1055
5.4 1149
5.42 1125
5.44 1016
5.46 857
5.48 883
5.5 876
5.52 871
5.54 921
5.56 965
5.58 947
5.6 1023
5.62 1029
5.64 1063
5.66 1062
5.68 1134
5.7 1230
5.72 1372
5.74 1434
5.76 1735
5.78 1897
5.8 1642
5.82 1107
5.84 866
5.86 698
5.88 703
5.9 746
5.92 659
5.94 647
5.96 684
5.98 663
6 611
6.02 650
6.04 642
6.06 650
6.08 617
6.1 641
6.12 629
6.14 618
6.16 611
6.18 598
6.2 615
6.22 641
6.24 618
6.26 663
6.28 622
6.3 595
6.32 647
6.34 658
6.36 620
6.38 649
6.4 647
6.42 654
6.44 600
6.46 625
6.48 614
6.5 654
6.52 667
6.54 656
6.56 639
6.58 630
6.6 622
6.62 662
6.64 683
6.66 661
6.68 643
6.7 634
6.72 710
6.74 738
6.76 760
6.78 722
6.8 650
6.82 646
6.84 641
6.86 619
6.88 607
6.9 619
6.92 595
6.94 554
6.96 594
6.98 619
7 572
7.02 599
7.04 626
7.06 610
7.08 620
7.1 610
7.12 566
7.14 589
7.16 613
7.18 627
7.2 616
7.22 610
7.24 578
7.26 563
7.28 550
7.3 654
7.32 583
7.34 580
7.36 628
7.38 569
7.4 561
7.42 569
7.44 592
7.46 590
7.48 578
7.5 604
7.52 592
7.54 577
7.56 597
7.58 597
7.6 606
7.62 567
7.64 598
7.66 588
7.68 614
7.7 617
7.72 591
7.74 621
7.76 620
7.78 649
7.8 613
7.82 595
7.84 632
7.86 547
7.88 599
7.9 634
7.92 558
7.94 535
7.96 619
7.98 568
8 577
8.02 646
8.04 632
8.06 576
8.08 597
8.1 634
8.12 617
8.14 654
8.16 640
8.18 590
8.2 530
8.22 610
8.24 575
8.26 596
8.28 607
8.3 588
8.32 540
8.34 585
8.36 561
8.38 592
8.4 608
8.42 601
8.44 601
8.46 572
8.48 604
8.5 619
8.52 603
8.54 573
8.56 602
8.58 585
8.6 580
8.62 604
8.64 550
8.66 572
8.68 604
8.7 593
8.72 583
8.74 605
8.76 623
8.78 571
8.8 592
8.82 555
8.84 614
8.86 583
8.88 592
8.9 572
8.92 623
8.94 609
8.96 590
8.98 572
9 598
9.02 612
9.04 587
9.06 610
9.08 623
9.1 606
9.12 605
9.14 596
9.16 626
9.18 647
9.2 647
9.22 649
9.24 669
9.26 774
9.28 747
9.3 789
9.32 828
9.34 893
9.36 823
9.38 703
9.4 625
9.42 605
9.44 575
9.46 587
9.48 600
9.5 608
9.52 591
9.54 592
9.56 611
9.58 558
9.6 593
9.62 578
9.64 577
9.66 606
9.68 578
9.7 553
9.72 649
9.74 594
9.76 560
9.78 629
9.8 588
9.82 569
9.84 574
9.86 566
9.88 591
9.9 585
9.92 582
9.94 606
9.96 598
9.98 582
10 596
10.02 606
10.04 607
10.06 612
10.08 605
10.1 596
10.12 648
10.14 595
10.16 704
10.18 654
10.2 688
10.22 622
10.24 600
10.26 590
10.28 575
10.3 609
10.32 602
10.34 554
10.36 580
10.38 568
10.4 565
10.42 614
10.44 569
10.46 543
10.48 572
10.5 572
10.52 563
10.54 547
10.56 546
10.58 612
10.6 632
10.62 611
10.64 581
10.66 605
10.68 628
10.7 591
10.72 625
10.74 610
10.76 618
10.78 645
10.8 618
10.82 622
10.84 610
10.86 614
10.88 628
10.9 624
10.92 682
10.94 716
10.96 796
10.98 743
11 642
11.02 629
11.04 595
11.06 568
11.08 562
11.1 575
11.12 626
11.14 585
11.16 576
11.18 557
11.2 571
11.22 586
11.24 584
11.26 565
11.28 600
11.3 604
11.32 614
11.34 577
11.36 618
11.38 541
11.4 576
11.42 560
11.44 626
11.46 689
11.48 676
11.5 655
11.52 673
11.54 634
11.56 609
11.58 625
11.6 625
11.62 594
11.64 594
11.66 585
11.68 612
11.7 592
11.72 580
11.74 599
11.76 631
11.78 578
11.8 573
11.82 570
11.84 596
11.86 575
11.88 606
11.9 571
11.92 572
11.94 565
11.96 554
11.98 579
12 583
12.02 566
12.04 648
12.06 577
12.08 586
12.1 603
12.12 607
12.14 633
12.16 628
12.18 583
12.2 642
12.22 640
12.24 618
12.26 571
12.28 631
12.3 580
12.32 595
12.34 589
12.36 616
12.38 592
12.4 589
12.42 575
12.44 590
12.46 606
12.48 564
12.5 577
12.52 585
12.54 601
12.56 637
12.58 548
12.6 624
12.62 604
12.64 591
12.66 572
12.68 603
12.7 605
12.72 562
12.74 563
12.76 617
12.78 583
12.8 632
12.82 621
12.84 595
12.86 574
12.88 631
12.9 572
12.92 595
12.94 629
12.96 624
12.98 644
13 600
13.02 621
13.04 596
13.06 634
13.08 598
13.1 609
13.12 632
13.14 628
13.16 653
13.18 597
13.2 614
13.22 612
13.24 664
13.26 631
13.28 654
13.3 660
13.32 629
13.34 626
13.36 663
13.38 659
13.4 644
13.42 662
13.44 660
13.46 625
13.48 659
13.5 646
13.52 632
13.54 605
13.56 617
13.58 644
13.6 621
13.62 669
13.64 614
13.66 655
13.68 655
13.7 643
13.72 621
13.74 659
13.76 654
13.78 626
13.8 619
13.82 653
13.84 660
13.86 624
13.88 658
13.9 662
13.92 651
13.94 680
13.96 617
13.98 584
14 705
14.02 663
14.04 632
14.06 609
14.08 652
14.1 658
14.12 666
14.14 630
14.16 669
14.18 674
14.2 703
14.22 659
14.24 652
14.26 637
14.28 648
14.3 694
14.32 676
14.34 687
14.36 669
14.38 665
14.4 659
14.42 670
14.44 657
14.46 675
14.48 694
14.5 667
14.52 660
14.54 662
14.56 697
14.58 689
14.6 676
14.62 668
14.64 665
14.66 634
14.68 694
14.7 689
14.72 715
14.74 726
14.76 699
14.78 655
14.8 729
14.82 763
14.84 711
14.86 744
14.88 740
14.9 713
14.92 710
14.94 699
14.96 737
14.98 754
15 707
15.02 729
15.04 762
15.06 681
15.08 685
15.1 731
15.12 742
15.14 726
15.16 736
15.18 713
15.2 773
15.22 726
15.24 744
15.26 749
15.28 739
15.3 728
15.32 754
15.34 744
15.36 759
15.38 778
15.4 730
15.42 787
15.44 749
15.46 754
15.48 735
15.5 760
15.52 747
15.54 781
15.56 719
15.58 787
15.6 773
15.62 808
15.64 789
15.66 767
15.68 792
15.7 773
15.72 798
15.74 758
15.76 783
15.78 792
15.8 743
15.82 809
15.84 775
15.86 770
15.88 810
15.9 760
15.92 784
15.94 754
15.96 802
15.98 783
16 837
16.02 809
16.04 780
16.06 813
16.08 731
16.1 810
16.12 860
16.14 832
16.16 854
16.18 836
16.2 770
16.22 815
16.24 810
16.26 847
16.28 847
16.3 912
16.32 877
16.34 883
16.36 836
16.38 848
16.4 896
16.42 834
16.44 905
16.46 824
16.48 799
16.5 885
16.52 915
16.54 868
16.56 905
16.58 891
16.6 874
16.62 907
16.64 883
16.66 902
16.68 855
16.7 873
16.72 934
16.74 948
16.76 955
16.78 1029
16.8 1044
16.82 1071
16.84 1002
16.86 1107
16.88 1244
16.9 1376
16.92 1414
16.94 1582
16.96 1765
16.98 1960
17 2069
17.02 1908
17.04 1714
17.06 1464
17.08 1231
17.1 1054
17.12 1022
17.14 997
17.16 959
17.18 999
17.2 976
17.22 1016
17.24 967
17.26 1011
17.28 985
17.3 978
17.32 926
17.34 956
17.36 993
17.38 975
17.4 950
17.42 985
17.44 980
17.46 961
17.48 924
17.5 998
17.52 998
17.54 1014
17.56 1078
17.58 945
17.6 964
17.62 978
17.64 1000
17.66 992
17.68 1003
17.7 985
17.72 992
17.74 1040
17.76 1053
17.78 989
17.8 990
17.82 1003
17.84 1062
17.86 1073
17.88 988
17.9 1074
17.92 1004
17.94 1037
17.96 994
17.98 1047
18 1083
18.02 1085
18.04 1026
18.06 1074
18.08 1065
18.1 1012
18.12 1018
18.14 1064
18.16 1063
18.18 1030
18.2 1054
18.22 1088
18.24 1110
18.26 1079
18.28 1083
18.3 1054
18.32 1049
18.34 1048
18.36 1092
18.38 1080
18.4 1134
18.42 1068
18.44 1133
18.46 1124
18.48 1089
18.5 1129
18.52 1068
18.54 1141
18.56 1088
18.58 1120
18.6 1182
18.62 1169
18.64 1207
18.66 1093
18.68 1189
18.7 1146
18.72 1124
18.74 1138
18.76 1215
18.78 1222
18.8 1218
18.82 1178
18.84 1218
18.86 1229
18.88 1166
18.9 1121
18.92 1216
18.94 1165
18.96 1219
18.98 1201
19 1253
19.02 1178
19.04 1213
19.06 1212
19.08 1255
19.1 1286
19.12 1285
19.14 1277
19.16 1333
19.18 1273
19.2 1208
19.22 1212
19.24 1266
19.26 1219
19.28 1232
19.3 1242
19.32 1260
19.34 1237
19.36 1241
19.38 1223
19.4 1248
19.42 1326
19.44 1326
19.46 1307
19.48 1255
19.5 1282
19.52 1316
19.54 1344
19.56 1278
19.58 1297
19.6 1331
19.62 1317
19.64 1226
19.66 1305
19.68 1305
19.7 1324
19.72 1283
19.74 1201
19.76 1350
19.78 1309
19.8 1337
19.82 1356
19.84 1324
19.86 1341
19.88 1399
19.9 1337
19.92 1347
19.94 1350
19.96 1326
19.98 1256
20 1328