File: xrd-UiO-67/pxrddata/45-5.ASC
3 2444
3.02 2280
3.04 2178
3.06 2026
3.08 1963
3.1 1789
3.12 1730
3.14 1761
3.16 1664
3.18 1679
3.2 1607
3.22 1553
3.24 1614
3.26 1608
3.28 1479
3.3 1518
3.32 1500
3.34 1473
3.36 1461
3.38 1391
3.4 1389
3.42 1421
3.44 1362
3.46 1364
3.48 1354
3.5 1317
3.52 1341
3.54 1240
3.56 1255
3.58 1342
3.6 1225
3.62 1222
3.64 1157
3.66 1194
3.68 1168
3.7 1221
3.72 1119
3.74 1105
3.76 1067
3.78 1139
3.8 1092
3.82 1071
3.84 1083
3.86 1067
3.88 1043
3.9 1049
3.92 994
3.94 1038
3.96 1049
3.98 962
4 973
4.02 1008
4.04 960
4.06 927
4.08 940
4.1 905
4.12 984
4.14 924
4.16 913
4.18 919
4.2 898
4.22 932
4.24 922
4.26 879
4.28 844
4.3 824
4.32 818
4.34 912
4.36 805
4.38 883
4.4 862
4.42 841
4.44 844
4.46 828
4.48 825
4.5 753
4.52 780
4.54 805
4.56 800
4.58 750
4.6 732
4.62 767
4.64 762
4.66 702
4.68 735
4.7 730
4.72 732
4.74 738
4.76 700
4.78 718
4.8 714
4.82 738
4.84 719
4.86 694
4.88 632
4.9 721
4.92 759
4.94 684
4.96 748
4.98 701
5 678
5.02 693
5.04 695
5.06 715
5.08 643
5.1 667
5.12 710
5.14 650
5.16 670
5.18 688
5.2 673
5.22 641
5.24 647
5.26 617
5.28 659
5.3 679
5.32 635
5.34 659
5.36 669
5.38 654
5.4 633
5.42 640
5.44 643
5.46 663
5.48 705
5.5 668
5.52 651
5.54 667
5.56 710
5.58 638
5.6 666
5.62 650
5.64 680
5.66 699
5.68 684
5.7 665
5.72 645
5.74 670
5.76 669
5.78 656
5.8 660
5.82 637
5.84 606
5.86 648
5.88 617
5.9 616
5.92 647
5.94 665
5.96 609
5.98 582
6 625
6.02 635
6.04 637
6.06 616
6.08 614
6.1 637
6.12 676
6.14 667
6.16 593
6.18 653
6.2 618
6.22 608
6.24 615
6.26 613
6.28 638
6.3 658
6.32 662
6.34 591
6.36 615
6.38 626
6.4 626
6.42 659
6.44 647
6.46 605
6.48 667
6.5 621
6.52 657
6.54 605
6.56 646
6.58 653
6.6 650
6.62 645
6.64 651
6.66 676
6.68 661
6.7 641
6.72 664
6.74 658
6.76 645
6.78 610
6.8 598
6.82 641
6.84 653
6.86 609
6.88 612
6.9 599
6.92 679
6.94 623
6.96 634
6.98 641
7 650
7.02 647
7.04 617
7.06 637
7.08 662
7.1 645
7.12 666
7.14 653
7.16 678
7.18 635
7.2 674
7.22 650
7.24 632
7.26 656
7.28 658
7.3 654
7.32 654
7.34 637
7.36 645
7.38 660
7.4 612
7.42 641
7.44 658
7.46 686
7.48 677
7.5 646
7.52 655
7.54 653
7.56 663
7.58 658
7.6 627
7.62 590
7.64 609
7.66 645
7.68 705
7.7 639
7.72 648
7.74 656
7.76 640
7.78 667
7.8 642
7.82 646
7.84 605
7.86 666
7.88 675
7.9 673
7.92 631
7.94 635
7.96 631
7.98 640
8 640
8.02 629
8.04 622
8.06 666
8.08 683
8.1 667
8.12 650
8.14 631
8.16 656
8.18 677
8.2 654
8.22 682
8.24 639
8.26 697
8.28 671
8.3 721
8.32 688
8.34 713
8.36 727
8.38 646
8.4 691
8.42 703
8.44 681
8.46 722
8.48 726
8.5 728
8.52 753
8.54 766
8.56 762
8.58 738
8.6 725
8.62 762
8.64 765
8.66 743
8.68 786
8.7 809
8.72 753
8.74 795
8.76 837
8.78 822
8.8 888
8.82 906
8.84 911
8.86 912
8.88 971
8.9 1042
8.92 1115
8.94 1183
8.96 1262
8.98 1251
9 1235
9.02 1206
9.04 1213
9.06 1129
9.08 1126
9.1 1124
9.12 1148
9.14 1121
9.16 1131
9.18 1021
9.2 1000
9.22 987
9.24 978
9.26 968
9.28 980
9.3 993
9.32 963
9.34 1004
9.36 977
9.38 957
9.4 887
9.42 882
9.44 875
9.46 756
9.48 804
9.5 828
9.52 777
9.54 789
9.56 765
9.58 769
9.6 798
9.62 785
9.64 825
9.66 751
9.68 825
9.7 799
9.72 839
9.74 850
9.76 831
9.78 904
9.8 880
9.82 902
9.84 997
9.86 988
9.88 1041
9.9 1033
9.92 1059
9.94 1161
9.96 1142
9.98 1199
10 1218
10.02 1237
10.04 1208
10.06 1156
10.08 1070
10.1 1063
10.12 973
10.14 974
10.16 920
10.18 820
10.2 836
10.22 808
10.24 820
10.26 785
10.28 762
10.3 780
10.32 811
10.34 733
10.36 795
10.38 768
10.4 810
10.42 782
10.44 766
10.46 706
10.48 733
10.5 703
10.52 699
10.54 745
10.56 712
10.58 749
10.6 711
10.62 746
10.64 753
10.66 705
10.68 724
10.7 736
10.72 689
10.74 711
10.76 705
10.78 629
10.8 691
10.82 735
10.84 689
10.86 659
10.88 669
10.9 661
10.92 707
10.94 735
10.96 725
10.98 650
11 676
11.02 654
11.04 632
11.06 622
11.08 596
11.1 621
11.12 606
11.14 595
11.16 581
11.18 594
11.2 605
11.22 606
11.24 584
11.26 563
11.28 585
11.3 571
11.32 587
11.34 562
11.36 592
11.38 593
11.4 591
11.42 577
11.44 511
11.46 543
11.48 596
11.5 564
11.52 506
11.54 540
11.56 543
11.58 540
11.6 543
11.62 578
11.64 543
11.66 509
11.68 563
11.7 542
11.72 544
11.74 524
11.76 517
11.78 567
11.8 542
11.82 512
11.84 587
11.86 514
11.88 576
11.9 552
11.92 579
11.94 541
11.96 548
11.98 615
12 549
12.02 570
12.04 542
12.06 557
12.08 543
12.1 526
12.12 534
12.14 528
12.16 540
12.18 564
12.2 547
12.22 558
12.24 576
12.26 574
12.28 585
12.3 555
12.32 592
12.34 596
12.36 563
12.38 577
12.4 599
12.42 571
12.44 573
12.46 663
12.48 671
12.5 676
12.52 702
12.54 726
12.56 704
12.58 745
12.6 818
12.62 885
12.64 880
12.66 886
12.68 900
12.7 866
12.72 828
12.74 766
12.76 774
12.78 710
12.8 690
12.82 641
12.84 633
12.86 625
12.88 576
12.9 661
12.92 608
12.94 606
12.96 583
12.98 602
13 600
13.02 555
13.04 584
13.06 560
13.08 576
13.1 577
13.12 612
13.14 644
13.16 568
13.18 568
13.2 615
13.22 593
13.24 596
13.26 660
13.28 630
13.3 578
13.32 627
13.34 579
13.36 569
13.38 565
13.4 617
13.42 598
13.44 558
13.46 619
13.48 569
13.5 612
13.52 593
13.54 613
13.56 589
13.58 596
13.6 615
13.62 579
13.64 585
13.66 583
13.68 646
13.7 550
13.72 631
13.74 606
13.76 567
13.78 580
13.8 591
13.82 585
13.84 633
13.86 564
13.88 601
13.9 623
13.92 585
13.94 612
13.96 606
13.98 586
14 622
14.02 604
14.04 577
14.06 611
14.08 558
14.1 584
14.12 596
14.14 550
14.16 590
14.18 602
14.2 614
14.22 553
14.24 594
14.26 619
14.28 571
14.3 582
14.32 602
14.34 622
14.36 602
14.38 596
14.4 596
14.42 604
14.44 618
14.46 654
14.48 619
14.5 635
14.52 633
14.54 640
14.56 633
14.58 611
14.6 591
14.62 645
14.64 678
14.66 617
14.68 603
14.7 603
14.72 631
14.74 599
14.76 610
14.78 589
14.8 603
14.82 611
14.84 584
14.86 589
14.88 613
14.9 643
14.92 609
14.94 553
14.96 634
14.98 586
15 675
15.02 645
15.04 604
15.06 627
15.08 637
15.1 603
15.12 641
15.14 596
15.16 634
15.18 644
15.2 628
15.22 624
15.24 621
15.26 596
15.28 605
15.3 628
15.32 602
15.34 652
15.36 648
15.38 663
15.4 592
15.42 644
15.44 663
15.46 634
15.48 631
15.5 632
15.52 661
15.54 647
15.56 611
15.58 621
15.6 675
15.62 631
15.64 659
15.66 648
15.68 618
15.7 660
15.72 656
15.74 627
15.76 656
15.78 625
15.8 669
15.82 649
15.84 619
15.86 656
15.88 662
15.9 657
15.92 658
15.94 673
15.96 680
15.98 680
16 677
16.02 664
16.04 616
16.06 678
16.08 698
16.1 655
16.12 694
16.14 681
16.16 669
16.18 694
16.2 710
16.22 684
16.24 666
16.26 686
16.28 658
16.3 735
16.32 655
16.34 702
16.36 675
16.38 676
16.4 697
16.42 659
16.44 747
16.46 744
16.48 660
16.5 690
16.52 751
16.54 712
16.56 708
16.58 698
16.6 725
16.62 790
16.64 775
16.66 743
16.68 697
16.7 695
16.72 788
16.74 792
16.76 809
16.78 800
16.8 791
16.82 871
16.84 849
16.86 878
16.88 964
16.9 999
16.92 1087
16.94 1216
16.96 1388
16.98 1422
17 1436
17.02 1411
17.04 1379
17.06 1228
17.08 1089
17.1 968
17.12 942
17.14 870
17.16 841
17.18 824
17.2 783
17.22 786
17.24 754
17.26 768
17.28 771
17.3 778
17.32 786
17.34 817
17.36 777
17.38 802
17.4 794
17.42 756
17.44 796
17.46 773
17.48 716
17.5 803
17.52 817
17.54 805
17.56 766
17.58 787
17.6 820
17.62 828
17.64 787
17.66 802
17.68 845
17.7 817
17.72 818
17.74 837
17.76 851
17.78 882
17.8 791
17.82 868
17.84 858
17.86 890
17.88 855
17.9 870
17.92 862
17.94 879
17.96 821
17.98 844
18 839
18.02 835
18.04 826
18.06 892
18.08 891
18.1 833
18.12 846
18.14 861
18.16 914
18.18 898
18.2 950
18.22 930
18.24 897
18.26 868
18.28 876
18.3 871
18.32 897
18.34 947
18.36 927
18.38 903
18.4 914
18.42 956
18.44 944
18.46 934
18.48 933
18.5 919
18.52 909
18.54 915
18.56 976
18.58 944
18.6 915
18.62 959
18.64 945
18.66 970
18.68 915
18.7 989
18.72 952
18.74 944
18.76 932
18.78 916
18.8 994
18.82 960
18.84 936
18.86 978
18.88 976
18.9 1006
18.92 937
18.94 926
18.96 1008
18.98 998
19 988
19.02 989
19.04 961
19.06 989
19.08 997
19.1 959
19.12 960
19.14 1003
19.16 1028
19.18 989
19.2 945
19.22 1108
19.24 1024
19.26 1010
19.28 986
19.3 990
19.32 965
19.34 1014
19.36 1014
19.38 1009
19.4 1045
19.42 1010
19.44 1003
19.46 1035
19.48 1051
19.5 1029
19.52 1034
19.54 1025
19.56 1009
19.58 984
19.6 1058
19.62 1033
19.64 1027
19.66 1072
19.68 1126
19.7 1039
19.72 1069
19.74 1123
19.76 1062
19.78 1105
19.8 1138
19.82 1118
19.84 1099
19.86 1139
19.88 1162
19.9 1196
19.92 1191
19.94 1187
19.96 1252
19.98 1228
20 1241