File: xrd-UiO-67/pxrddata/45-6.ASC
3 2349
3.02 2126
3.04 1936
3.06 1872
3.08 1729
3.1 1687
3.12 1647
3.14 1591
3.16 1639
3.18 1509
3.2 1482
3.22 1482
3.24 1535
3.26 1415
3.28 1522
3.3 1475
3.32 1379
3.34 1473
3.36 1369
3.38 1362
3.4 1336
3.42 1394
3.44 1348
3.46 1394
3.48 1288
3.5 1270
3.52 1362
3.54 1224
3.56 1252
3.58 1271
3.6 1329
3.62 1214
3.64 1280
3.66 1164
3.68 1280
3.7 1196
3.72 1189
3.74 1244
3.76 1171
3.78 1181
3.8 1184
3.82 1160
3.84 1138
3.86 1132
3.88 1174
3.9 1157
3.92 1154
3.94 1164
3.96 1123
3.98 1090
4 1126
4.02 1123
4.04 1131
4.06 1096
4.08 1187
4.1 1068
4.12 1093
4.14 1137
4.16 1104
4.18 1088
4.2 1034
4.22 1060
4.24 1067
4.26 1024
4.28 1054
4.3 1041
4.32 956
4.34 1029
4.36 1081
4.38 1002
4.4 1100
4.42 1032
4.44 980
4.46 1016
4.48 1079
4.5 1037
4.52 1031
4.54 1082
4.56 1037
4.58 997
4.6 985
4.62 1023
4.64 1047
4.66 986
4.68 1015
4.7 995
4.72 1023
4.74 1047
4.76 1003
4.78 1082
4.8 991
4.82 1052
4.84 1014
4.86 975
4.88 1098
4.9 1091
4.92 980
4.94 1007
4.96 1033
4.98 1064
5 1054
5.02 1076
5.04 1018
5.06 1018
5.08 1069
5.1 1042
5.12 1111
5.14 1072
5.16 1105
5.18 1170
5.2 1145
5.22 1162
5.24 1170
5.26 1220
5.28 1299
5.3 1267
5.32 1340
5.34 1387
5.36 1438
5.38 1607
5.4 1749
5.42 1834
5.44 1655
5.46 1524
5.48 1453
5.5 1324
5.52 1185
5.54 1197
5.56 1082
5.58 1082
5.6 1096
5.62 1061
5.64 1108
5.66 1087
5.68 1026
5.7 1040
5.72 988
5.74 995
5.76 1000
5.78 965
5.8 937
5.82 878
5.84 885
5.86 883
5.88 890
5.9 796
5.92 865
5.94 838
5.96 820
5.98 798
6 777
6.02 772
6.04 759
6.06 764
6.08 816
6.1 753
6.12 756
6.14 722
6.16 738
6.18 764
6.2 700
6.22 715
6.24 722
6.26 756
6.28 723
6.3 699
6.32 756
6.34 734
6.36 698
6.38 687
6.4 681
6.42 736
6.44 678
6.46 691
6.48 698
6.5 706
6.52 681
6.54 657
6.56 656
6.58 682
6.6 706
6.62 678
6.64 704
6.66 727
6.68 715
6.7 676
6.72 714
6.74 670
6.76 694
6.78 704
6.8 724
6.82 741
6.84 644
6.86 684
6.88 651
6.9 671
6.92 623
6.94 638
6.96 679
6.98 695
7 651
7.02 672
7.04 654
7.06 674
7.08 654
7.1 650
7.12 688
7.14 637
7.16 679
7.18 670
7.2 623
7.22 686
7.24 649
7.26 670
7.28 681
7.3 626
7.32 695
7.34 628
7.36 648
7.38 622
7.4 661
7.42 654
7.44 685
7.46 689
7.48 605
7.5 667
7.52 681
7.54 657
7.56 673
7.58 639
7.6 688
7.62 688
7.64 621
7.66 631
7.68 659
7.7 695
7.72 649
7.74 689
7.76 699
7.78 677
7.8 683
7.82 652
7.84 672
7.86 689
7.88 649
7.9 680
7.92 688
7.94 705
7.96 671
7.98 677
8 656
8.02 657
8.04 690
8.06 697
8.08 663
8.1 662
8.12 632
8.14 669
8.16 617
8.18 659
8.2 663
8.22 621
8.24 635
8.26 635
8.28 631
8.3 659
8.32 638
8.34 649
8.36 673
8.38 666
8.4 665
8.42 644
8.44 653
8.46 632
8.48 646
8.5 659
8.52 693
8.54 681
8.56 683
8.58 657
8.6 668
8.62 686
8.64 657
8.66 671
8.68 629
8.7 621
8.72 669
8.74 694
8.76 659
8.78 642
8.8 696
8.82 669
8.84 649
8.86 681
8.88 669
8.9 669
8.92 670
8.94 694
8.96 701
8.98 719
9 690
9.02 692
9.04 687
9.06 776
9.08 676
9.1 737
9.12 688
9.14 715
9.16 710
9.18 707
9.2 724
9.22 749
9.24 741
9.26 859
9.28 862
9.3 920
9.32 918
9.34 978
9.36 887
9.38 805
9.4 718
9.42 713
9.44 724
9.46 685
9.48 718
9.5 673
9.52 654
9.54 672
9.56 639
9.58 604
9.6 650
9.62 635
9.64 668
9.66 667
9.68 694
9.7 644
9.72 632
9.74 627
9.76 634
9.78 633
9.8 677
9.82 644
9.84 674
9.86 631
9.88 622
9.9 641
9.92 667
9.94 642
9.96 666
9.98 651
10 637
10.02 666
10.04 673
10.06 689
10.08 638
10.1 661
10.12 596
10.14 665
10.16 672
10.18 628
10.2 629
10.22 644
10.24 648
10.26 627
10.28 613
10.3 617
10.32 630
10.34 643
10.36 679
10.38 626
10.4 661
10.42 615
10.44 603
10.46 602
10.48 622
10.5 714
10.52 586
10.54 643
10.56 627
10.58 642
10.6 663
10.62 686
10.64 699
10.66 686
10.68 677
10.7 690
10.72 747
10.74 780
10.76 788
10.78 774
10.8 770
10.82 761
10.84 723
10.86 711
10.88 701
10.9 672
10.92 684
10.94 663
10.96 710
10.98 694
11 651
11.02 637
11.04 667
11.06 644
11.08 613
11.1 692
11.12 676
11.14 593
11.16 635
11.18 659
11.2 631
11.22 624
11.24 600
11.26 602
11.28 620
11.3 634
11.32 624
11.34 616
11.36 624
11.38 640
11.4 606
11.42 625
11.44 640
11.46 609
11.48 608
11.5 660
11.52 688
11.54 662
11.56 661
11.58 605
11.6 634
11.62 619
11.64 635
11.66 628
11.68 672
11.7 657
11.72 613
11.74 636
11.76 672
11.78 595
11.8 618
11.82 625
11.84 612
11.86 634
11.88 660
11.9 638
11.92 669
11.94 630
11.96 618
11.98 649
12 616
12.02 666
12.04 664
12.06 629
12.08 670
12.1 671
12.12 653
12.14 688
12.16 603
12.18 665
12.2 643
12.22 609
12.24 707
12.26 692
12.28 652
12.3 677
12.32 676
12.34 646
12.36 629
12.38 644
12.4 614
12.42 644
12.44 643
12.46 630
12.48 642
12.5 679
12.52 660
12.54 647
12.56 665
12.58 662
12.6 663
12.62 654
12.64 654
12.66 626
12.68 651
12.7 647
12.72 648
12.74 683
12.76 693
12.78 661
12.8 655
12.82 649
12.84 683
12.86 656
12.88 643
12.9 740
12.92 643
12.94 646
12.96 653
12.98 670
13 694
13.02 667
13.04 682
13.06 665
13.08 713
13.1 648
13.12 691
13.14 677
13.16 717
13.18 673
13.2 690
13.22 682
13.24 715
13.26 712
13.28 701
13.3 715
13.32 713
13.34 692
13.36 679
13.38 622
13.4 710
13.42 653
13.44 692
13.46 730
13.48 643
13.5 652
13.52 698
13.54 702
13.56 624
13.58 718
13.6 687
13.62 688
13.64 695
13.66 703
13.68 698
13.7 749
13.72 725
13.74 713
13.76 687
13.78 701
13.8 720
13.82 719
13.84 681
13.86 694
13.88 714
13.9 733
13.92 692
13.94 715
13.96 733
13.98 751
14 758
14.02 686
14.04 737
14.06 677
14.08 694
14.1 727
14.12 714
14.14 745
14.16 712
14.18 704
14.2 732
14.22 737
14.24 746
14.26 740
14.28 732
14.3 768
14.32 734
14.34 758
14.36 766
14.38 733
14.4 720
14.42 776
14.44 760
14.46 752
14.48 757
14.5 721
14.52 701
14.54 716
14.56 779
14.58 781
14.6 784
14.62 738
14.64 736
14.66 751
14.68 758
14.7 724
14.72 729
14.74 776
14.76 749
14.78 779
14.8 722
14.82 767
14.84 794
14.86 777
14.88 761
14.9 793
14.92 805
14.94 814
14.96 771
14.98 731
15 775
15.02 785
15.04 790
15.06 809
15.08 792
15.1 822
15.12 766
15.14 767
15.16 807
15.18 840
15.2 767
15.22 805
15.24 797
15.26 795
15.28 803
15.3 833
15.32 771
15.34 820
15.36 807
15.38 851
15.4 810
15.42 827
15.44 799
15.46 798
15.48 756
15.5 829
15.52 864
15.54 852
15.56 778
15.58 826
15.6 828
15.62 822
15.64 800
15.66 869
15.68 838
15.7 838
15.72 871
15.74 837
15.76 880
15.78 875
15.8 884
15.82 857
15.84 886
15.86 789
15.88 847
15.9 856
15.92 884
15.94 847
15.96 866
15.98 860
16 809
16.02 885
16.04 911
16.06 900
16.08 921
16.1 897
16.12 872
16.14 877
16.16 895
16.18 914
16.2 932
16.22 877
16.24 910
16.26 911
16.28 847
16.3 885
16.32 903
16.34 884
16.36 955
16.38 1017
16.4 934
16.42 900
16.44 938
16.46 935
16.48 921
16.5 925
16.52 882
16.54 982
16.56 944
16.58 983
16.6 1057
16.62 914
16.64 1019
16.66 1017
16.68 987
16.7 1021
16.72 1050
16.74 1030
16.76 1003
16.78 1097
16.8 1065
16.82 1150
16.84 1149
16.86 1158
16.88 1294
16.9 1390
16.92 1486
16.94 1640
16.96 1825
16.98 1983
17 2124
17.02 1940
17.04 1683
17.06 1561
17.08 1346
17.1 1182
17.12 1069
17.14 1147
17.16 1040
17.18 1069
17.2 1078
17.22 1103
17.24 1053
17.26 1046
17.28 1082
17.3 1082
17.32 1073
17.34 1047
17.36 1023
17.38 1056
17.4 1055
17.42 1063
17.44 1093
17.46 1067
17.48 1031
17.5 1086
17.52 1116
17.54 1118
17.56 1070
17.58 1091
17.6 1096
17.62 1103
17.64 1115
17.66 1075
17.68 1118
17.7 1149
17.72 1037
17.74 1145
17.76 1174
17.78 1172
17.8 1134
17.82 1148
17.84 1117
17.86 1186
17.88 1167
17.9 1113
17.92 1138
17.94 1146
17.96 1110
17.98 1177
18 1110
18.02 1181
18.04 1175
18.06 1165
18.08 1151
18.1 1204
18.12 1158
18.14 1235
18.16 1146
18.18 1147
18.2 1167
18.22 1214
18.24 1200
18.26 1183
18.28 1145
18.3 1208
18.32 1250
18.34 1225
18.36 1248
18.38 1147
18.4 1295
18.42 1204
18.44 1199
18.46 1215
18.48 1208
18.5 1265
18.52 1227
18.54 1273
18.56 1223
18.58 1249
18.6 1273
18.62 1281
18.64 1269
18.66 1353
18.68 1264
18.7 1237
18.72 1338
18.74 1280
18.76 1301
18.78 1300
18.8 1281
18.82 1310
18.84 1314
18.86 1301
18.88 1329
18.9 1300
18.92 1344
18.94 1352
18.96 1383
18.98 1341
19 1280
19.02 1321
19.04 1296
19.06 1402
19.08 1383
19.1 1355
19.12 1315
19.14 1322
19.16 1366
19.18 1351
19.2 1336
19.22 1275
19.24 1345
19.26 1425
19.28 1394
19.3 1318
19.32 1398
19.34 1368
19.36 1405
19.38 1394
19.4 1398
19.42 1523
19.44 1489
19.46 1463
19.48 1462
19.5 1517
19.52 1383
19.54 1450
19.56 1413
19.58 1430
19.6 1393
19.62 1369
19.64 1437
19.66 1457
19.68 1441
19.7 1472
19.72 1463
19.74 1383
19.76 1457
19.78 1586
19.8 1444
19.82 1472
19.84 1442
19.86 1479
19.88 1458
19.9 1450
19.92 1475
19.94 1491
19.96 1396
19.98 1493
20 1456