File: xrd-UiO-67/pxrddata/45-7.ASC
3 2265
3.02 2119
3.04 1939
3.06 1741
3.08 1787
3.1 1624
3.12 1543
3.14 1492
3.16 1502
3.18 1501
3.2 1500
3.22 1496
3.24 1394
3.26 1404
3.28 1441
3.3 1430
3.32 1362
3.34 1351
3.36 1369
3.38 1300
3.4 1312
3.42 1331
3.44 1300
3.46 1314
3.48 1233
3.5 1261
3.52 1181
3.54 1223
3.56 1193
3.58 1193
3.6 1127
3.62 1175
3.64 1138
3.66 1132
3.68 1084
3.7 1108
3.72 1138
3.74 1069
3.76 1149
3.78 1093
3.8 1065
3.82 1084
3.84 1077
3.86 1086
3.88 1036
3.9 1054
3.92 985
3.94 997
3.96 967
3.98 983
4 915
4.02 1003
4.04 926
4.06 963
4.08 928
4.1 923
4.12 935
4.14 866
4.16 896
4.18 872
4.2 878
4.22 930
4.24 897
4.26 890
4.28 921
4.3 880
4.32 833
4.34 888
4.36 927
4.38 848
4.4 787
4.42 803
4.44 819
4.46 808
4.48 814
4.5 839
4.52 776
4.54 794
4.56 815
4.58 847
4.6 790
4.62 807
4.64 738
4.66 768
4.68 774
4.7 750
4.72 762
4.74 755
4.76 720
4.78 748
4.8 723
4.82 717
4.84 728
4.86 761
4.88 735
4.9 736
4.92 707
4.94 750
4.96 734
4.98 729
5 696
5.02 725
5.04 730
5.06 709
5.08 721
5.1 691
5.12 675
5.14 693
5.16 635
5.18 702
5.2 680
5.22 709
5.24 653
5.26 716
5.28 684
5.3 656
5.32 701
5.34 777
5.36 712
5.38 726
5.4 712
5.42 694
5.44 706
5.46 692
5.48 713
5.5 677
5.52 691
5.54 645
5.56 682
5.58 669
5.6 698
5.62 666
5.64 689
5.66 694
5.68 672
5.7 625
5.72 692
5.74 678
5.76 670
5.78 651
5.8 644
5.82 658
5.84 679
5.86 671
5.88 707
5.9 722
5.92 690
5.94 668
5.96 662
5.98 684
6 737
6.02 651
6.04 655
6.06 675
6.08 681
6.1 627
6.12 658
6.14 674
6.16 665
6.18 640
6.2 665
6.22 664
6.24 675
6.26 669
6.28 699
6.3 682
6.32 676
6.34 655
6.36 699
6.38 695
6.4 684
6.42 693
6.44 659
6.46 671
6.48 686
6.5 727
6.52 751
6.54 702
6.56 672
6.58 700
6.6 723
6.62 687
6.64 673
6.66 708
6.68 720
6.7 752
6.72 695
6.74 740
6.76 678
6.78 680
6.8 717
6.82 691
6.84 750
6.86 726
6.88 680
6.9 711
6.92 693
6.94 735
6.96 718
6.98 681
7 748
7.02 665
7.04 735
7.06 693
7.08 738
7.1 724
7.12 715
7.14 678
7.16 706
7.18 731
7.2 736
7.22 709
7.24 715
7.26 696
7.28 761
7.3 711
7.32 698
7.34 722
7.36 753
7.38 685
7.4 710
7.42 755
7.44 730
7.46 762
7.48 712
7.5 717
7.52 687
7.54 775
7.56 789
7.58 749
7.6 719
7.62 743
7.64 732
7.66 768
7.68 783
7.7 813
7.72 783
7.74 771
7.76 823
7.78 749
7.8 742
7.82 778
7.84 792
7.86 809
7.88 816
7.9 780
7.92 850
7.94 819
7.96 842
7.98 785
8 774
8.02 780
8.04 789
8.06 783
8.08 793
8.1 778
8.12 766
8.14 712
8.16 754
8.18 771
8.2 789
8.22 759
8.24 813
8.26 807
8.28 790
8.3 802
8.32 841
8.34 798
8.36 803
8.38 847
8.4 885
8.42 903
8.44 869
8.46 895
8.48 889
8.5 914
8.52 895
8.54 905
8.56 922
8.58 907
8.6 960
8.62 977
8.64 961
8.66 1019
8.68 985
8.7 1011
8.72 1047
8.74 1125
8.76 1121
8.78 1194
8.8 1128
8.82 1244
8.84 1281
8.86 1373
8.88 1469
8.9 1496
8.92 1657
8.94 1707
8.96 1791
8.98 1894
9 1855
9.02 1845
9.04 1707
9.06 1692
9.08 1688
9.1 1720
9.12 1575
9.14 1589
9.16 1497
9.18 1448
9.2 1399
9.22 1375
9.24 1296
9.26 1297
9.28 1287
9.3 1340
9.32 1324
9.34 1333
9.36 1367
9.38 1304
9.4 1224
9.42 1143
9.44 1132
9.46 1154
9.48 1072
9.5 1101
9.52 1091
9.54 1025
9.56 1065
9.58 1015
9.6 1030
9.62 1044
9.64 1106
9.66 1153
9.68 1098
9.7 1135
9.72 1206
9.74 1154
9.76 1193
9.78 1226
9.8 1352
9.82 1463
9.84 1395
9.86 1549
9.88 1554
9.9 1699
9.92 1834
9.94 1864
9.96 1933
9.98 2029
10 2127
10.02 2057
10.04 1913
10.06 1784
10.08 1610
10.1 1510
10.12 1361
10.14 1319
10.16 1241
10.18 1173
10.2 1137
10.22 1114
10.24 1055
10.26 1047
10.28 1051
10.3 1015
10.32 1017
10.34 1028
10.36 996
10.38 1012
10.4 924
10.42 985
10.44 980
10.46 928
10.48 936
10.5 918
10.52 911
10.54 903
10.56 951
10.58 930
10.6 936
10.62 925
10.64 943
10.66 919
10.68 957
10.7 878
10.72 881
10.74 921
10.76 871
10.78 885
10.8 903
10.82 934
10.84 914
10.86 927
10.88 904
10.9 963
10.92 917
10.94 904
10.96 900
10.98 872
11 835
11.02 771
11.04 819
11.06 830
11.08 824
11.1 792
11.12 706
11.14 741
11.16 721
11.18 706
11.2 755
11.22 739
11.24 707
11.26 729
11.28 737
11.3 717
11.32 728
11.34 759
11.36 705
11.38 713
11.4 698
11.42 685
11.44 693
11.46 707
11.48 726
11.5 693
11.52 691
11.54 700
11.56 667
11.58 710
11.6 704
11.62 687
11.64 702
11.66 660
11.68 667
11.7 696
11.72 665
11.74 657
11.76 722
11.78 727
11.8 704
11.82 723
11.84 687
11.86 690
11.88 720
11.9 711
11.92 728
11.94 706
11.96 715
11.98 691
12 723
12.02 709
12.04 626
12.06 714
12.08 708
12.1 706
12.12 664
12.14 703
12.16 715
12.18 701
12.2 743
12.22 722
12.24 738
12.26 765
12.28 712
12.3 766
12.32 774
12.34 753
12.36 770
12.38 802
12.4 811
12.42 827
12.44 792
12.46 838
12.48 848
12.5 931
12.52 931
12.54 1062
12.56 1024
12.58 1100
12.6 1154
12.62 1237
12.64 1292
12.66 1250
12.68 1274
12.7 1276
12.72 1202
12.74 1158
12.76 1126
12.78 1022
12.8 979
12.82 912
12.84 861
12.86 780
12.88 815
12.9 807
12.92 832
12.94 797
12.96 792
12.98 813
13 790
13.02 786
13.04 763
13.06 827
13.08 800
13.1 741
13.12 768
13.14 818
13.16 791
13.18 801
13.2 826
13.22 745
13.24 779
13.26 804
13.28 746
13.3 792
13.32 806
13.34 815
13.36 823
13.38 821
13.4 785
13.42 790
13.44 815
13.46 788
13.48 808
13.5 757
13.52 741
13.54 792
13.56 771
13.58 815
13.6 807
13.62 781
13.64 777
13.66 754
13.68 788
13.7 766
13.72 791
13.74 772
13.76 774
13.78 781
13.8 755
13.82 739
13.84 840
13.86 766
13.88 791
13.9 759
13.92 740
13.94 780
13.96 834
13.98 746
14 775
14.02 790
14.04 825
14.06 816
14.08 831
14.1 781
14.12 769
14.14 782
14.16 784
14.18 804
14.2 849
14.22 788
14.24 803
14.26 792
14.28 767
14.3 808
14.32 802
14.34 838
14.36 808
14.38 802
14.4 781
14.42 777
14.44 816
14.46 832
14.48 781
14.5 803
14.52 854
14.54 864
14.56 852
14.58 895
14.6 829
14.62 887
14.64 829
14.66 833
14.68 854
14.7 826
14.72 760
14.74 827
14.76 838
14.78 818
14.8 814
14.82 868
14.84 833
14.86 827
14.88 841
14.9 857
14.92 825
14.94 803
14.96 822
14.98 854
15 830
15.02 834
15.04 886
15.06 828
15.08 836
15.1 870
15.12 859
15.14 824
15.16 863
15.18 846
15.2 868
15.22 834
15.24 891
15.26 846
15.28 876
15.3 836
15.32 876
15.34 834
15.36 865
15.38 853
15.4 864
15.42 831
15.44 859
15.46 845
15.48 907
15.5 904
15.52 839
15.54 875
15.56 860
15.58 881
15.6 823
15.62 910
15.64 896
15.66 873
15.68 886
15.7 940
15.72 870
15.74 944
15.76 914
15.78 871
15.8 921
15.82 903
15.84 889
15.86 889
15.88 890
15.9 895
15.92 916
15.94 906
15.96 909
15.98 880
16 930
16.02 941
16.04 944
16.06 932
16.08 914
16.1 914
16.12 884
16.14 921
16.16 940
16.18 903
16.2 930
16.22 1007
16.24 928
16.26 930
16.28 898
16.3 951
16.32 931
16.34 933
16.36 997
16.38 943
16.4 947
16.42 989
16.44 981
16.46 989
16.48 978
16.5 981
16.52 964
16.54 996
16.56 986
16.58 976
16.6 1020
16.62 1002
16.64 1000
16.66 1063
16.68 1043
16.7 1063
16.72 1087
16.74 1095
16.76 1061
16.78 1100
16.8 1120
16.82 1098
16.84 1146
16.86 1245
16.88 1261
16.9 1299
16.92 1492
16.94 1493
16.96 1745
16.98 1920
17 1979
17.02 1980
17.04 1871
17.06 1629
17.08 1507
17.1 1268
17.12 1264
17.14 1184
17.16 1132
17.18 1111
17.2 1080
17.22 1107
17.24 1143
17.26 1103
17.28 1142
17.3 1075
17.32 1150
17.34 1102
17.36 1077
17.38 1073
17.4 1108
17.42 1085
17.44 1139
17.46 1120
17.48 1095
17.5 1119
17.52 1082
17.54 1102
17.56 1021
17.58 1125
17.6 1132
17.62 1113
17.64 1146
17.66 1147
17.68 1113
17.7 1103
17.72 1150
17.74 1175
17.76 1180
17.78 1177
17.8 1189
17.82 1181
17.84 1207
17.86 1174
17.88 1189
17.9 1159
17.92 1137
17.94 1206
17.96 1212
17.98 1225
18 1197
18.02 1276
18.04 1197
18.06 1262
18.08 1236
18.1 1183
18.12 1240
18.14 1239
18.16 1278
18.18 1242
18.2 1295
18.22 1284
18.24 1335
18.26 1297
18.28 1195
18.3 1255
18.32 1288
18.34 1275
18.36 1257
18.38 1326
18.4 1316
18.42 1300
18.44 1255
18.46 1285
18.48 1321
18.5 1338
18.52 1390
18.54 1306
18.56 1347
18.58 1387
18.6 1369
18.62 1370
18.64 1293
18.66 1391
18.68 1384
18.7 1370
18.72 1381
18.74 1395
18.76 1341
18.78 1352
18.8 1308
18.82 1288
18.84 1348
18.86 1391
18.88 1370
18.9 1344
18.92 1374
18.94 1429
18.96 1301
18.98 1418
19 1389
19.02 1382
19.04 1352
19.06 1431
19.08 1416
19.1 1396
19.12 1348
19.14 1383
19.16 1408
19.18 1372
19.2 1377
19.22 1422
19.24 1518
19.26 1440
19.28 1462
19.3 1423
19.32 1457
19.34 1430
19.36 1349
19.38 1475
19.4 1421
19.42 1452
19.44 1460
19.46 1432
19.48 1521
19.5 1509
19.52 1507
19.54 1479
19.56 1461
19.58 1469
19.6 1492
19.62 1563
19.64 1523
19.66 1492
19.68 1497
19.7 1526
19.72 1517
19.74 1592
19.76 1512
19.78 1597
19.8 1647
19.82 1547
19.84 1572
19.86 1654
19.88 1718
19.9 1755
19.92 1684
19.94 1798
19.96 1833
19.98 1842
20 1844