File: xrd-UiO-67/pxrddata/45-8.ASC
3 2208
3.02 2074
3.04 1977
3.06 1772
3.08 1672
3.1 1660
3.12 1646
3.14 1556
3.16 1525
3.18 1497
3.2 1507
3.22 1474
3.24 1487
3.26 1420
3.28 1442
3.3 1402
3.32 1348
3.34 1307
3.36 1357
3.38 1391
3.4 1320
3.42 1320
3.44 1218
3.46 1246
3.48 1234
3.5 1240
3.52 1258
3.54 1214
3.56 1137
3.58 1225
3.6 1183
3.62 1201
3.64 1171
3.66 1167
3.68 1108
3.7 1164
3.72 1154
3.74 1114
3.76 1039
3.78 1082
3.8 1038
3.82 1103
3.84 1054
3.86 1103
3.88 1040
3.9 1025
3.92 972
3.94 968
3.96 1004
3.98 971
4 970
4.02 1004
4.04 994
4.06 967
4.08 932
4.1 971
4.12 952
4.14 949
4.16 949
4.18 903
4.2 898
4.22 903
4.24 906
4.26 877
4.28 892
4.3 892
4.32 886
4.34 884
4.36 890
4.38 910
4.4 912
4.42 877
4.44 849
4.46 834
4.48 838
4.5 834
4.52 851
4.54 803
4.56 816
4.58 839
4.6 839
4.62 855
4.64 775
4.66 805
4.68 825
4.7 809
4.72 818
4.74 836
4.76 827
4.78 818
4.8 828
4.82 792
4.84 768
4.86 724
4.88 761
4.9 806
4.92 781
4.94 724
4.96 751
4.98 805
5 695
5.02 802
5.04 750
5.06 700
5.08 722
5.1 769
5.12 739
5.14 735
5.16 758
5.18 718
5.2 738
5.22 722
5.24 706
5.26 693
5.28 715
5.3 743
5.32 709
5.34 721
5.36 730
5.38 735
5.4 702
5.42 673
5.44 698
5.46 690
5.48 679
5.5 687
5.52 735
5.54 742
5.56 738
5.58 718
5.6 710
5.62 684
5.64 681
5.66 684
5.68 679
5.7 690
5.72 687
5.74 684
5.76 676
5.78 651
5.8 697
5.82 673
5.84 689
5.86 687
5.88 697
5.9 686
5.92 679
5.94 693
5.96 713
5.98 670
6 676
6.02 661
6.04 648
6.06 723
6.08 697
6.1 675
6.12 734
6.14 688
6.16 647
6.18 700
6.2 669
6.22 670
6.24 679
6.26 680
6.28 650
6.3 647
6.32 664
6.34 670
6.36 690
6.38 632
6.4 669
6.42 669
6.44 685
6.46 674
6.48 692
6.5 664
6.52 720
6.54 637
6.56 663
6.58 652
6.6 666
6.62 659
6.64 681
6.66 681
6.68 664
6.7 671
6.72 655
6.74 666
6.76 671
6.78 632
6.8 627
6.82 671
6.84 659
6.86 645
6.88 638
6.9 633
6.92 687
6.94 663
6.96 656
6.98 697
7 681
7.02 658
7.04 674
7.06 645
7.08 649
7.1 658
7.12 628
7.14 600
7.16 648
7.18 614
7.2 650
7.22 596
7.24 668
7.26 627
7.28 634
7.3 635
7.32 644
7.34 639
7.36 641
7.38 650
7.4 627
7.42 688
7.44 677
7.46 657
7.48 662
7.5 652
7.52 665
7.54 659
7.56 644
7.58 663
7.6 662
7.62 671
7.64 647
7.66 661
7.68 696
7.7 613
7.72 633
7.74 640
7.76 644
7.78 641
7.8 629
7.82 654
7.84 655
7.86 636
7.88 590
7.9 660
7.92 638
7.94 644
7.96 699
7.98 694
8 615
8.02 632
8.04 634
8.06 630
8.08 642
8.1 654
8.12 656
8.14 659
8.16 637
8.18 647
8.2 651
8.22 599
8.24 624
8.26 643
8.28 658
8.3 648
8.32 628
8.34 611
8.36 687
8.38 670
8.4 659
8.42 615
8.44 626
8.46 599
8.48 645
8.5 610
8.52 627
8.54 649
8.56 617
8.58 621
8.6 616
8.62 624
8.64 662
8.66 596
8.68 646
8.7 658
8.72 597
8.74 593
8.76 639
8.78 649
8.8 622
8.82 602
8.84 622
8.86 587
8.88 624
8.9 647
8.92 624
8.94 609
8.96 657
8.98 621
9 648
9.02 634
9.04 598
9.06 639
9.08 572
9.1 583
9.12 594
9.14 637
9.16 594
9.18 603
9.2 640
9.22 581
9.24 657
9.26 614
9.28 637
9.3 611
9.32 588
9.34 557
9.36 580
9.38 604
9.4 598
9.42 629
9.44 641
9.46 625
9.48 618
9.5 610
9.52 590
9.54 622
9.56 633
9.58 592
9.6 644
9.62 573
9.64 607
9.66 623
9.68 616
9.7 636
9.72 574
9.74 602
9.76 603
9.78 589
9.8 635
9.82 612
9.84 685
9.86 619
9.88 611
9.9 605
9.92 645
9.94 618
9.96 634
9.98 638
10 641
10.02 602
10.04 566
10.06 598
10.08 659
10.1 626
10.12 622
10.14 623
10.16 594
10.18 559
10.2 584
10.22 609
10.24 622
10.26 650
10.28 621
10.3 600
10.32 594
10.34 609
10.36 611
10.38 607
10.4 608
10.42 645
10.44 653
10.46 648
10.48 552
10.5 605
10.52 618
10.54 640
10.56 627
10.58 610
10.6 634
10.62 641
10.64 615
10.66 584
10.68 587
10.7 559
10.72 572
10.74 611
10.76 559
10.78 600
10.8 624
10.82 628
10.84 609
10.86 605
10.88 588
10.9 574
10.92 602
10.94 605
10.96 602
10.98 556
11 650
11.02 602
11.04 629
11.06 590
11.08 636
11.1 624
11.12 593
11.14 595
11.16 662
11.18 573
11.2 596
11.22 640
11.24 565
11.26 609
11.28 622
11.3 617
11.32 579
11.34 552
11.36 608
11.38 612
11.4 558
11.42 589
11.44 617
11.46 598
11.48 601
11.5 585
11.52 603
11.54 609
11.56 596
11.58 610
11.6 596
11.62 600
11.64 621
11.66 596
11.68 651
11.7 601
11.72 659
11.74 576
11.76 596
11.78 652
11.8 592
11.82 606
11.84 619
11.86 609
11.88 636
11.9 601
11.92 571
11.94 591
11.96 611
11.98 581
12 637
12.02 635
12.04 592
12.06 592
12.08 619
12.1 640
12.12 577
12.14 598
12.16 616
12.18 603
12.2 653
12.22 589
12.24 582
12.26 607
12.28 632
12.3 607
12.32 598
12.34 632
12.36 580
12.38 604
12.4 612
12.42 618
12.44 590
12.46 622
12.48 633
12.5 611
12.52 621
12.54 639
12.56 617
12.58 607
12.6 626
12.62 600
12.64 611
12.66 647
12.68 648
12.7 660
12.72 618
12.74 655
12.76 580
12.78 628
12.8 611
12.82 620
12.84 623
12.86 648
12.88 615
12.9 620
12.92 653
12.94 609
12.96 594
12.98 667
13 663
13.02 650
13.04 649
13.06 619
13.08 642
13.1 649
13.12 639
13.14 624
13.16 686
13.18 678
13.2 649
13.22 642
13.24 636
13.26 647
13.28 654
13.3 645
13.32 641
13.34 663
13.36 645
13.38 635
13.4 671
13.42 640
13.44 664
13.46 616
13.48 597
13.5 657
13.52 640
13.54 656
13.56 640
13.58 640
13.6 661
13.62 711
13.64 731
13.66 654
13.68 608
13.7 633
13.72 633
13.74 669
13.76 607
13.78 637
13.8 619
13.82 667
13.84 677
13.86 621
13.88 663
13.9 640
13.92 630
13.94 670
13.96 705
13.98 625
14 655
14.02 663
14.04 634
14.06 689
14.08 664
14.1 654
14.12 646
14.14 657
14.16 670
14.18 695
14.2 661
14.22 670
14.24 679
14.26 650
14.28 750
14.3 661
14.32 696
14.34 650
14.36 647
14.38 689
14.4 658
14.42 713
14.44 703
14.46 709
14.48 674
14.5 687
14.52 694
14.54 698
14.56 665
14.58 699
14.6 688
14.62 683
14.64 696
14.66 711
14.68 679
14.7 708
14.72 712
14.74 722
14.76 674
14.78 666
14.8 713
14.82 682
14.84 688
14.86 661
14.88 662
14.9 693
14.92 658
14.94 678
14.96 686
14.98 730
15 713
15.02 667
15.04 738
15.06 734
15.08 680
15.1 713
15.12 700
15.14 696
15.16 696
15.18 748
15.2 727
15.22 692
15.24 702
15.26 719
15.28 721
15.3 711
15.32 767
15.34 771
15.36 724
15.38 692
15.4 744
15.42 734
15.44 714
15.46 731
15.48 704
15.5 747
15.52 717
15.54 725
15.56 733
15.58 705
15.6 773
15.62 745
15.64 722
15.66 758
15.68 783
15.7 686
15.72 773
15.74 757
15.76 751
15.78 752
15.8 755
15.82 763
15.84 747
15.86 748
15.88 778
15.9 732
15.92 778
15.94 729
15.96 784
15.98 752
16 746
16.02 758
16.04 773
16.06 732
16.08 772
16.1 768
16.12 779
16.14 744
16.16 785
16.18 809
16.2 809
16.22 822
16.24 765
16.26 781
16.28 837
16.3 765
16.32 759
16.34 802
16.36 811
16.38 763
16.4 848
16.42 835
16.44 866
16.46 869
16.48 830
16.5 884
16.52 847
16.54 826
16.56 862
16.58 895
16.6 864
16.62 864
16.64 861
16.66 877
16.68 855
16.7 917
16.72 877
16.74 925
16.76 918
16.78 1006
16.8 975
16.82 1077
16.84 1154
16.86 1253
16.88 1308
16.9 1476
16.92 1618
16.94 1678
16.96 1774
16.98 1732
17 1617
17.02 1494
17.04 1288
17.06 1144
17.08 1073
17.1 1006
17.12 996
17.14 977
17.16 896
17.18 901
17.2 959
17.22 927
17.24 956
17.26 935
17.28 838
17.3 928
17.32 894
17.34 932
17.36 911
17.38 918
17.4 934
17.42 937
17.44 917
17.46 906
17.48 937
17.5 943
17.52 891
17.54 925
17.56 879
17.58 959
17.6 918
17.62 915
17.64 949
17.66 977
17.68 975
17.7 932
17.72 957
17.74 950
17.76 989
17.78 963
17.8 940
17.82 918
17.84 979
17.86 961
17.88 954
17.9 1046
17.92 990
17.94 993
17.96 960
17.98 1002
18 1010
18.02 964
18.04 1030
18.06 1042
18.08 1008
18.1 1030
18.12 998
18.14 991
18.16 1004
18.18 987
18.2 972
18.22 1079
18.24 1078
18.26 1050
18.28 1048
18.3 1046
18.32 1042
18.34 1067
18.36 1081
18.38 1056
18.4 1024
18.42 1060
18.44 998
18.46 1097
18.48 1061
18.5 1053
18.52 1108
18.54 1037
18.56 1022
18.58 1084
18.6 1070
18.62 1094
18.64 1103
18.66 1056
18.68 1090
18.7 1098
18.72 1153
18.74 1107
18.76 1099
18.78 1136
18.8 1079
18.82 1176
18.84 1103
18.86 1103
18.88 1142
18.9 1223
18.92 1106
18.94 1148
18.96 1165
18.98 1134
19 1140
19.02 1173
19.04 1131
19.06 1178
19.08 1167
19.1 1172
19.12 1206
19.14 1201
19.16 1195
19.18 1149
19.2 1108
19.22 1186
19.24 1164
19.26 1222
19.28 1151
19.3 1139
19.32 1207
19.34 1230
19.36 1166
19.38 1152
19.4 1231
19.42 1169
19.44 1184
19.46 1225
19.48 1206
19.5 1240
19.52 1254
19.54 1184
19.56 1204
19.58 1250
19.6 1171
19.62 1314
19.64 1285
19.66 1236
19.68 1243
19.7 1233
19.72 1275
19.74 1350
19.76 1338
19.78 1213
19.8 1263
19.82 1257
19.84 1269
19.86 1240
19.88 1280
19.9 1291
19.92 1327
19.94 1272
19.96 1334
19.98 1261
20 1281