File: xrd-UiO-67/pxrddata/45-9.ASC
3 2335
3.02 2130
3.04 2005
3.06 1931
3.08 1835
3.1 1686
3.12 1609
3.14 1587
3.16 1498
3.18 1550
3.2 1483
3.22 1430
3.24 1472
3.26 1463
3.28 1481
3.3 1398
3.32 1389
3.34 1436
3.36 1351
3.38 1346
3.4 1413
3.42 1275
3.44 1285
3.46 1317
3.48 1277
3.5 1324
3.52 1313
3.54 1221
3.56 1266
3.58 1137
3.6 1238
3.62 1153
3.64 1149
3.66 1151
3.68 1176
3.7 1072
3.72 1097
3.74 1111
3.76 1108
3.78 1097
3.8 1142
3.82 1188
3.84 1076
3.86 1060
3.88 1064
3.9 976
3.92 1021
3.94 974
3.96 1067
3.98 961
4 979
4.02 968
4.04 950
4.06 936
4.08 908
4.1 897
4.12 892
4.14 962
4.16 904
4.18 905
4.2 910
4.22 848
4.24 866
4.26 889
4.28 850
4.3 901
4.32 848
4.34 853
4.36 826
4.38 798
4.4 808
4.42 833
4.44 779
4.46 847
4.48 872
4.5 743
4.52 801
4.54 784
4.56 786
4.58 782
4.6 773
4.62 753
4.64 763
4.66 714
4.68 734
4.7 736
4.72 745
4.74 739
4.76 684
4.78 726
4.8 707
4.82 700
4.84 698
4.86 710
4.88 728
4.9 669
4.92 661
4.94 676
4.96 686
4.98 726
5 677
5.02 671
5.04 681
5.06 683
5.08 669
5.1 704
5.12 675
5.14 669
5.16 605
5.18 652
5.2 640
5.22 651
5.24 640
5.26 669
5.28 653
5.3 635
5.32 588
5.34 611
5.36 655
5.38 629
5.4 652
5.42 620
5.44 626
5.46 610
5.48 686
5.5 642
5.52 637
5.54 678
5.56 630
5.58 629
5.6 611
5.62 606
5.64 613
5.66 635
5.68 603
5.7 617
5.72 634
5.74 607
5.76 677
5.78 643
5.8 631
5.82 637
5.84 610
5.86 607
5.88 617
5.9 598
5.92 629
5.94 610
5.96 591
5.98 634
6 649
6.02 583
6.04 576
6.06 605
6.08 628
6.1 594
6.12 587
6.14 611
6.16 634
6.18 584
6.2 629
6.22 609
6.24 605
6.26 574
6.28 603
6.3 623
6.32 613
6.34 675
6.36 626
6.38 598
6.4 620
6.42 604
6.44 640
6.46 609
6.48 594
6.5 589
6.52 576
6.54 584
6.56 587
6.58 589
6.6 613
6.62 609
6.64 597
6.66 606
6.68 600
6.7 602
6.72 614
6.74 590
6.76 598
6.78 598
6.8 582
6.82 579
6.84 579
6.86 627
6.88 593
6.9 620
6.92 555
6.94 623
6.96 597
6.98 593
7 592
7.02 607
7.04 589
7.06 600
7.08 587
7.1 621
7.12 621
7.14 636
7.16 615
7.18 585
7.2 600
7.22 575
7.24 577
7.26 624
7.28 608
7.3 552
7.32 616
7.34 636
7.36 620
7.38 575
7.4 616
7.42 567
7.44 591
7.46 597
7.48 605
7.5 641
7.52 596
7.54 598
7.56 586
7.58 611
7.6 569
7.62 599
7.64 625
7.66 582
7.68 627
7.7 598
7.72 571
7.74 614
7.76 605
7.78 560
7.8 594
7.82 590
7.84 595
7.86 590
7.88 584
7.9 558
7.92 603
7.94 600
7.96 621
7.98 656
8 622
8.02 614
8.04 585
8.06 606
8.08 635
8.1 602
8.12 600
8.14 545
8.16 626
8.18 570
8.2 629
8.22 633
8.24 632
8.26 578
8.28 628
8.3 611
8.32 633
8.34 612
8.36 585
8.38 665
8.4 630
8.42 634
8.44 616
8.46 668
8.48 713
8.5 681
8.52 647
8.54 660
8.56 675
8.58 684
8.6 742
8.62 721
8.64 782
8.66 795
8.68 826
8.7 859
8.72 897
8.74 850
8.76 863
8.78 883
8.8 934
8.82 1089
8.84 1077
8.86 1101
8.88 1118
8.9 1170
8.92 1162
8.94 1181
8.96 1198
8.98 1206
9 1074
9.02 1032
9.04 967
9.06 876
9.08 887
9.1 851
9.12 842
9.14 860
9.16 836
9.18 803
9.2 824
9.22 797
9.24 805
9.26 823
9.28 819
9.3 777
9.32 793
9.34 800
9.36 731
9.38 728
9.4 745
9.42 679
9.44 702
9.46 725
9.48 715
9.5 730
9.52 735
9.54 725
9.56 785
9.58 778
9.6 777
9.62 788
9.64 728
9.66 759
9.68 758
9.7 774
9.72 808
9.74 876
9.76 850
9.78 926
9.8 920
9.82 948
9.84 1009
9.86 1057
9.88 1172
9.9 1214
9.92 1172
9.94 1181
9.96 1149
9.98 995
10 959
10.02 940
10.04 831
10.06 827
10.08 776
10.1 779
10.12 686
10.14 758
10.16 668
10.18 672
10.2 637
10.22 642
10.24 664
10.26 616
10.28 681
10.3 622
10.32 626
10.34 659
10.36 655
10.38 647
10.4 596
10.42 625
10.44 625
10.46 606
10.48 573
10.5 611
10.52 632
10.54 570
10.56 606
10.58 591
10.6 585
10.62 636
10.64 573
10.66 620
10.68 603
10.7 613
10.72 583
10.74 617
10.76 583
10.78 575
10.8 617
10.82 599
10.84 631
10.86 554
10.88 637
10.9 597
10.92 582
10.94 593
10.96 610
10.98 562
11 596
11.02 557
11.04 569
11.06 560
11.08 605
11.1 595
11.12 572
11.14 524
11.16 558
11.18 560
11.2 523
11.22 568
11.24 535
11.26 542
11.28 575
11.3 554
11.32 568
11.34 504
11.36 539
11.38 571
11.4 565
11.42 560
11.44 533
11.46 593
11.48 580
11.5 543
11.52 541
11.54 533
11.56 522
11.58 608
11.6 564
11.62 568
11.64 537
11.66 550
11.68 567
11.7 549
11.72 544
11.74 548
11.76 568
11.78 569
11.8 543
11.82 575
11.84 532
11.86 537
11.88 573
11.9 570
11.92 562
11.94 569
11.96 581
11.98 571
12 525
12.02 539
12.04 566
12.06 534
12.08 543
12.1 540
12.12 558
12.14 566
12.16 568
12.18 551
12.2 574
12.22 560
12.24 564
12.26 591
12.28 553
12.3 563
12.32 592
12.34 583
12.36 580
12.38 608
12.4 598
12.42 643
12.44 617
12.46 626
12.48 628
12.5 682
12.52 689
12.54 719
12.56 768
12.58 798
12.6 766
12.62 716
12.64 748
12.66 712
12.68 733
12.7 681
12.72 699
12.74 667
12.76 645
12.78 666
12.8 702
12.82 576
12.84 574
12.86 637
12.88 540
12.9 600
12.92 642
12.94 590
12.96 607
12.98 578
13 583
13.02 581
13.04 590
13.06 632
13.08 605
13.1 611
13.12 567
13.14 591
13.16 591
13.18 639
13.2 584
13.22 636
13.24 621
13.26 645
13.28 664
13.3 666
13.32 633
13.34 691
13.36 707
13.38 638
13.4 642
13.42 632
13.44 566
13.46 621
13.48 610
13.5 611
13.52 578
13.54 614
13.56 596
13.58 589
13.6 600
13.62 556
13.64 590
13.66 596
13.68 582
13.7 563
13.72 548
13.74 596
13.76 563
13.78 605
13.8 563
13.82 554
13.84 591
13.86 596
13.88 624
13.9 569
13.92 616
13.94 598
13.96 625
13.98 580
14 612
14.02 586
14.04 563
14.06 564
14.08 631
14.1 588
14.12 590
14.14 590
14.16 599
14.18 589
14.2 575
14.22 614
14.24 629
14.26 559
14.28 582
14.3 571
14.32 565
14.34 619
14.36 599
14.38 591
14.4 612
14.42 602
14.44 580
14.46 637
14.48 598
14.5 642
14.52 611
14.54 576
14.56 619
14.58 616
14.6 623
14.62 594
14.64 624
14.66 633
14.68 603
14.7 597
14.72 575
14.74 623
14.76 612
14.78 638
14.8 611
14.82 655
14.84 599
14.86 616
14.88 665
14.9 599
14.92 642
14.94 672
14.96 646
14.98 631
15 612
15.02 598
15.04 610
15.06 600
15.08 603
15.1 625
15.12 590
15.14 609
15.16 630
15.18 577
15.2 626
15.22 630
15.24 639
15.26 632
15.28 625
15.3 608
15.32 639
15.34 644
15.36 637
15.38 615
15.4 615
15.42 589
15.44 636
15.46 644
15.48 627
15.5 642
15.52 631
15.54 590
15.56 635
15.58 583
15.6 645
15.62 683
15.64 623
15.66 662
15.68 638
15.7 669
15.72 630
15.74 616
15.76 622
15.78 641
15.8 646
15.82 673
15.84 686
15.86 660
15.88 688
15.9 654
15.92 638
15.94 665
15.96 654
15.98 681
16 708
16.02 659
16.04 645
16.06 668
16.08 688
16.1 662
16.12 709
16.14 676
16.16 713
16.18 667
16.2 653
16.22 683
16.24 629
16.26 661
16.28 675
16.3 666
16.32 677
16.34 634
16.36 679
16.38 718
16.4 684
16.42 660
16.44 699
16.46 700
16.48 648
16.5 691
16.52 714
16.54 674
16.56 727
16.58 713
16.6 753
16.62 726
16.64 686
16.66 755
16.68 781
16.7 782
16.72 778
16.74 790
16.76 821
16.78 866
16.8 852
16.82 855
16.84 948
16.86 1012
16.88 1087
16.9 1194
16.92 1314
16.94 1436
16.96 1382
16.98 1364
17 1264
17.02 1080
17.04 908
17.06 878
17.08 833
17.1 787
17.12 833
17.14 800
17.16 753
17.18 785
17.2 764
17.22 771
17.24 746
17.26 750
17.28 694
17.3 734
17.32 776
17.34 750
17.36 757
17.38 749
17.4 778
17.42 782
17.44 783
17.46 809
17.48 751
17.5 764
17.52 758
17.54 794
17.56 737
17.58 778
17.6 738
17.62 803
17.64 814
17.66 777
17.68 779
17.7 766
17.72 830
17.74 811
17.76 816
17.78 832
17.8 833
17.82 791
17.84 816
17.86 767
17.88 848
17.9 808
17.92 802
17.94 768
17.96 864
17.98 862
18 832
18.02 794
18.04 829
18.06 833
18.08 814
18.1 869
18.12 860
18.14 867
18.16 834
18.18 841
18.2 835
18.22 826
18.24 855
18.26 847
18.28 881
18.3 841
18.32 860
18.34 836
18.36 846
18.38 922
18.4 818
18.42 867
18.44 863
18.46 889
18.48 910
18.5 863
18.52 904
18.54 886
18.56 818
18.58 846
18.6 845
18.62 917
18.64 846
18.66 848
18.68 804
18.7 826
18.72 879
18.74 841
18.76 904
18.78 861
18.8 909
18.82 852
18.84 925
18.86 887
18.88 894
18.9 865
18.92 884
18.94 894
18.96 934
18.98 871
19 918
19.02 882
19.04 891
19.06 905
19.08 886
19.1 920
19.12 951
19.14 889
19.16 949
19.18 928
19.2 880
19.22 975
19.24 864
19.26 951
19.28 912
19.3 946
19.32 902
19.34 924
19.36 943
19.38 922
19.4 959
19.42 931
19.44 983
19.46 966
19.48 934
19.5 900
19.52 962
19.54 958
19.56 962
19.58 937
19.6 950
19.62 961
19.64 961
19.66 1025
19.68 961
19.7 972
19.72 985
19.74 913
19.76 1040
19.78 1051
19.8 1072
19.82 1099
19.84 1059
19.86 1119
19.88 1118
19.9 1151
19.92 1134
19.94 1151
19.96 1121
19.98 1028
20 1094