File: xrd-UiO-67/pxrddata/46-1.ASC
3 2221
3.02 2087
3.04 1963
3.06 1810
3.08 1759
3.1 1697
3.12 1564
3.14 1560
3.16 1615
3.18 1500
3.2 1485
3.22 1518
3.24 1448
3.26 1480
3.28 1452
3.3 1466
3.32 1492
3.34 1380
3.36 1372
3.38 1359
3.4 1469
3.42 1384
3.44 1334
3.46 1397
3.48 1360
3.5 1302
3.52 1323
3.54 1292
3.56 1292
3.58 1225
3.6 1284
3.62 1230
3.64 1298
3.66 1232
3.68 1216
3.7 1220
3.72 1171
3.74 1159
3.76 1215
3.78 1197
3.8 1157
3.82 1173
3.84 1207
3.86 1181
3.88 1169
3.9 1156
3.92 1186
3.94 1169
3.96 1186
3.98 1140
4 1088
4.02 1100
4.04 1103
4.06 1065
4.08 1084
4.1 1155
4.12 1126
4.14 1091
4.16 1112
4.18 1040
4.2 1060
4.22 1042
4.24 1030
4.26 1067
4.28 1001
4.3 1074
4.32 1033
4.34 1011
4.36 999
4.38 1046
4.4 1005
4.42 1016
4.44 982
4.46 962
4.48 989
4.5 1036
4.52 965
4.54 946
4.56 963
4.58 990
4.6 978
4.62 960
4.64 972
4.66 959
4.68 935
4.7 907
4.72 984
4.74 926
4.76 943
4.78 996
4.8 1004
4.82 956
4.84 956
4.86 962
4.88 936
4.9 952
4.92 916
4.94 979
4.96 946
4.98 957
5 970
5.02 990
5.04 929
5.06 973
5.08 944
5.1 965
5.12 976
5.14 1026
5.16 1047
5.18 1000
5.2 1081
5.22 1060
5.24 1042
5.26 1105
5.28 1140
5.3 1126
5.32 1173
5.34 1204
5.36 1264
5.38 1366
5.4 1420
5.42 1497
5.44 1547
5.46 1689
5.48 1797
5.5 1898
5.52 1778
5.54 1605
5.56 1342
5.58 1198
5.6 1217
5.62 1146
5.64 1166
5.66 1158
5.68 1110
5.7 1166
5.72 1124
5.74 1164
5.76 1182
5.78 1233
5.8 1224
5.82 1147
5.84 1177
5.86 1203
5.88 1157
5.9 1079
5.92 1031
5.94 860
5.96 841
5.98 856
6 802
6.02 796
6.04 704
6.06 791
6.08 769
6.1 731
6.12 699
6.14 728
6.16 743
6.18 667
6.2 686
6.22 701
6.24 681
6.26 682
6.28 641
6.3 697
6.32 683
6.34 651
6.36 660
6.38 619
6.4 677
6.42 641
6.44 640
6.46 677
6.48 652
6.5 667
6.52 613
6.54 621
6.56 628
6.58 604
6.6 627
6.62 671
6.64 660
6.66 602
6.68 607
6.7 681
6.72 601
6.74 652
6.76 648
6.78 648
6.8 646
6.82 666
6.84 641
6.86 640
6.88 648
6.9 644
6.92 621
6.94 655
6.96 615
6.98 595
7 629
7.02 637
7.04 578
7.06 584
7.08 557
7.1 572
7.12 597
7.14 587
7.16 591
7.18 609
7.2 575
7.22 588
7.24 584
7.26 624
7.28 585
7.3 579
7.32 587
7.34 562
7.36 566
7.38 567
7.4 569
7.42 597
7.44 586
7.46 573
7.48 553
7.5 554
7.52 572
7.54 593
7.56 557
7.58 579
7.6 559
7.62 548
7.64 585
7.66 600
7.68 530
7.7 561
7.72 578
7.74 571
7.76 566
7.78 545
7.8 540
7.82 567
7.84 528
7.86 536
7.88 535
7.9 596
7.92 538
7.94 526
7.96 564
7.98 570
8 579
8.02 534
8.04 587
8.06 572
8.08 559
8.1 561
8.12 575
8.14 561
8.16 547
8.18 533
8.2 539
8.22 544
8.24 538
8.26 533
8.28 528
8.3 533
8.32 563
8.34 570
8.36 578
8.38 558
8.4 527
8.42 540
8.44 516
8.46 570
8.48 575
8.5 560
8.52 518
8.54 574
8.56 503
8.58 519
8.6 569
8.62 565
8.64 536
8.66 534
8.68 572
8.7 503
8.72 534
8.74 548
8.76 495
8.78 583
8.8 530
8.82 588
8.84 571
8.86 527
8.88 570
8.9 543
8.92 565
8.94 534
8.96 524
8.98 533
9 512
9.02 534
9.04 570
9.06 559
9.08 578
9.1 586
9.12 610
9.14 597
9.16 590
9.18 595
9.2 622
9.22 617
9.24 637
9.26 662
9.28 662
9.3 730
9.32 827
9.34 767
9.36 857
9.38 860
9.4 903
9.42 1006
9.44 938
9.46 813
9.48 680
9.5 602
9.52 593
9.54 553
9.56 598
9.58 555
9.6 530
9.62 537
9.64 512
9.66 564
9.68 531
9.7 536
9.72 561
9.74 528
9.76 529
9.78 533
9.8 523
9.82 521
9.84 566
9.86 559
9.88 553
9.9 565
9.92 553
9.94 555
9.96 540
9.98 567
10 521
10.02 526
10.04 527
10.06 531
10.08 549
10.1 574
10.12 540
10.14 537
10.16 588
10.18 547
10.2 578
10.22 564
10.24 586
10.26 584
10.28 562
10.3 558
10.32 566
10.34 494
10.36 539
10.38 514
10.4 524
10.42 538
10.44 516
10.46 519
10.48 505
10.5 484
10.52 501
10.54 535
10.56 543
10.58 516
10.6 558
10.62 564
10.64 510
10.66 533
10.68 598
10.7 595
10.72 575
10.74 620
10.76 594
10.78 586
10.8 668
10.82 640
10.84 682
10.86 759
10.88 751
10.9 674
10.92 619
10.94 613
10.96 632
10.98 589
11 648
11.02 568
11.04 609
11.06 628
11.08 612
11.1 587
11.12 554
11.14 552
11.16 522
11.18 516
11.2 539
11.22 525
11.24 511
11.26 521
11.28 494
11.3 526
11.32 504
11.34 533
11.36 555
11.38 514
11.4 503
11.42 539
11.44 529
11.46 520
11.48 516
11.5 544
11.52 566
11.54 544
11.56 548
11.58 543
11.6 542
11.62 553
11.64 562
11.66 537
11.68 545
11.7 518
11.72 525
11.74 554
11.76 544
11.78 508
11.8 506
11.82 495
11.84 511
11.86 526
11.88 495
11.9 521
11.92 508
11.94 487
11.96 533
11.98 542
12 518
12.02 529
12.04 565
12.06 559
12.08 539
12.1 497
12.12 538
12.14 543
12.16 562
12.18 538
12.2 529
12.22 518
12.24 583
12.26 542
12.28 536
12.3 565
12.32 548
12.34 538
12.36 519
12.38 536
12.4 587
12.42 515
12.44 540
12.46 508
12.48 542
12.5 518
12.52 533
12.54 532
12.56 499
12.58 537
12.6 577
12.62 555
12.64 493
12.66 500
12.68 497
12.7 487
12.72 531
12.74 560
12.76 578
12.78 514
12.8 516
12.82 540
12.84 522
12.86 531
12.88 543
12.9 533
12.92 535
12.94 528
12.96 526
12.98 536
13 554
13.02 571
13.04 586
13.06 574
13.08 522
13.1 540
13.12 557
13.14 552
13.16 543
13.18 561
13.2 560
13.22 509
13.24 541
13.26 502
13.28 534
13.3 574
13.32 555
13.34 555
13.36 596
13.38 573
13.4 562
13.42 569
13.44 565
13.46 585
13.48 532
13.5 552
13.52 544
13.54 560
13.56 562
13.58 582
13.6 539
13.62 531
13.64 567
13.66 600
13.68 581
13.7 538
13.72 589
13.74 558
13.76 524
13.78 581
13.8 548
13.82 568
13.84 557
13.86 580
13.88 563
13.9 626
13.92 570
13.94 560
13.96 584
13.98 585
14 551
14.02 575
14.04 583
14.06 567
14.08 588
14.1 563
14.12 573
14.14 572
14.16 620
14.18 568
14.2 608
14.22 605
14.24 615
14.26 615
14.28 589
14.3 605
14.32 623
14.34 663
14.36 637
14.38 612
14.4 580
14.42 589
14.44 626
14.46 588
14.48 597
14.5 615
14.52 571
14.54 547
14.56 577
14.58 567
14.6 610
14.62 588
14.64 639
14.66 639
14.68 592
14.7 596
14.72 595
14.74 623
14.76 624
14.78 619
14.8 602
14.82 576
14.84 611
14.86 591
14.88 629
14.9 598
14.92 623
14.94 634
14.96 603
14.98 613
15 598
15.02 570
15.04 615
15.06 640
15.08 629
15.1 616
15.12 634
15.14 678
15.16 596
15.18 627
15.2 609
15.22 618
15.24 646
15.26 678
15.28 657
15.3 604
15.32 644
15.34 640
15.36 614
15.38 681
15.4 634
15.42 670
15.44 631
15.46 631
15.48 621
15.5 660
15.52 671
15.54 606
15.56 678
15.58 658
15.6 661
15.62 580
15.64 613
15.66 632
15.68 640
15.7 593
15.72 678
15.74 702
15.76 609
15.78 660
15.8 647
15.82 628
15.84 641
15.86 672
15.88 675
15.9 634
15.92 689
15.94 636
15.96 656
15.98 666
16 683
16.02 648
16.04 697
16.06 705
16.08 716
16.1 646
16.12 689
16.14 661
16.16 695
16.18 701
16.2 665
16.22 677
16.24 700
16.26 681
16.28 647
16.3 709
16.32 719
16.34 683
16.36 698
16.38 689
16.4 700
16.42 716
16.44 700
16.46 686
16.48 715
16.5 696
16.52 721
16.54 692
16.56 783
16.58 731
16.6 727
16.62 740
16.64 703
16.66 684
16.68 729
16.7 764
16.72 762
16.74 701
16.76 710
16.78 752
16.8 793
16.82 703
16.84 706
16.86 725
16.88 731
16.9 737
16.92 736
16.94 821
16.96 785
16.98 818
17 857
17.02 914
17.04 905
17.06 932
17.08 915
17.1 934
17.12 864
17.14 775
17.16 766
17.18 763
17.2 740
17.22 748
17.24 787
17.26 803
17.28 809
17.3 786
17.32 789
17.34 806
17.36 856
17.38 819
17.4 791
17.42 797
17.44 825
17.46 814
17.48 788
17.5 785
17.52 822
17.54 808
17.56 779
17.58 876
17.6 817
17.62 781
17.64 834
17.66 822
17.68 807
17.7 831
17.72 892
17.74 824
17.76 817
17.78 805
17.8 797
17.82 807
17.84 839
17.86 820
17.88 870
17.9 820
17.92 800
17.94 847
17.96 869
17.98 874
18 835
18.02 847
18.04 823
18.06 845
18.08 847
18.1 860
18.12 849
18.14 871
18.16 865
18.18 849
18.2 889
18.22 825
18.24 847
18.26 881
18.28 929
18.3 915
18.32 891
18.34 931
18.36 941
18.38 923
18.4 878
18.42 837
18.44 884
18.46 877
18.48 867
18.5 968
18.52 968
18.54 922
18.56 851
18.58 891
18.6 896
18.62 931
18.64 877
18.66 921
18.68 905
18.7 984
18.72 968
18.74 990
18.76 951
18.78 963
18.8 958
18.82 929
18.84 965
18.86 935
18.88 969
18.9 954
18.92 962
18.94 981
18.96 953
18.98 971
19 1024
19.02 1014
19.04 1026
19.06 996
19.08 989
19.1 971
19.12 951
19.14 981
19.16 989
19.18 1062
19.2 1076
19.22 1072
19.24 1003
19.26 1036
19.28 1021
19.3 948
19.32 982
19.34 1087
19.36 1059
19.38 1021
19.4 1038
19.42 1017
19.44 1098
19.46 1074
19.48 1027
19.5 1145
19.52 1108
19.54 1088
19.56 1197
19.58 1054
19.6 1075
19.62 1131
19.64 1098
19.66 1110
19.68 1145
19.7 1056
19.72 1046
19.74 1083
19.76 1036
19.78 1064
19.8 1082
19.82 1060
19.84 1029
19.86 1039
19.88 1055
19.9 1039
19.92 1110
19.94 1092
19.96 1150
19.98 1083
20 1060