File: xrd-UiO-67/pxrddata/46-11.ASC
3 2910
3.02 2762
3.04 2516
3.06 2409
3.08 2199
3.1 2219
3.12 2106
3.14 2048
3.16 2071
3.18 2045
3.2 2021
3.22 1996
3.24 1938
3.26 1921
3.28 1868
3.3 1797
3.32 1878
3.34 1859
3.36 1792
3.38 1736
3.4 1841
3.42 1722
3.44 1721
3.46 1669
3.48 1734
3.5 1702
3.52 1543
3.54 1697
3.56 1552
3.58 1546
3.6 1522
3.62 1578
3.64 1511
3.66 1547
3.68 1415
3.7 1486
3.72 1453
3.74 1416
3.76 1448
3.78 1390
3.8 1445
3.82 1470
3.84 1376
3.86 1352
3.88 1402
3.9 1369
3.92 1410
3.94 1336
3.96 1464
3.98 1361
4 1383
4.02 1280
4.04 1325
4.06 1352
4.08 1282
4.1 1288
4.12 1273
4.14 1246
4.16 1280
4.18 1269
4.2 1275
4.22 1218
4.24 1273
4.26 1192
4.28 1236
4.3 1222
4.32 1183
4.34 1181
4.36 1234
4.38 1160
4.4 1179
4.42 1155
4.44 1213
4.46 1242
4.48 1129
4.5 1134
4.52 1116
4.54 1138
4.56 1175
4.58 1177
4.6 1173
4.62 1097
4.64 1165
4.66 1239
4.68 1230
4.7 1145
4.72 1160
4.74 1203
4.76 1242
4.78 1260
4.8 1251
4.82 1221
4.84 1240
4.86 1250
4.88 1245
4.9 1260
4.92 1321
4.94 1342
4.96 1301
4.98 1315
5 1442
5.02 1443
5.04 1380
5.06 1400
5.08 1482
5.1 1488
5.12 1547
5.14 1571
5.16 1679
5.18 1760
5.2 1812
5.22 1950
5.24 2030
5.26 2114
5.28 2285
5.3 2405
5.32 2681
5.34 2731
5.36 3030
5.38 3484
5.4 3984
5.42 4665
5.44 4776
5.46 4218
5.48 3210
5.5 2601
5.52 2118
5.54 1934
5.56 1815
5.58 1701
5.6 1551
5.62 1489
5.64 1410
5.66 1446
5.68 1261
5.7 1283
5.72 1214
5.74 1199
5.76 1183
5.78 1177
5.8 1168
5.82 1114
5.84 1100
5.86 1056
5.88 1052
5.9 1030
5.92 1059
5.94 988
5.96 1043
5.98 1022
6 944
6.02 933
6.04 957
6.06 931
6.08 910
6.1 885
6.12 883
6.14 901
6.16 812
6.18 907
6.2 916
6.22 904
6.24 874
6.26 933
6.28 842
6.3 848
6.32 810
6.34 840
6.36 828
6.38 846
6.4 882
6.42 810
6.44 818
6.46 822
6.48 856
6.5 839
6.52 847
6.54 829
6.56 798
6.58 836
6.6 837
6.62 831
6.64 791
6.66 802
6.68 828
6.7 857
6.72 782
6.74 795
6.76 809
6.78 795
6.8 818
6.82 859
6.84 782
6.86 840
6.88 744
6.9 846
6.92 769
6.94 797
6.96 818
6.98 848
7 816
7.02 807
7.04 825
7.06 817
7.08 801
7.1 808
7.12 776
7.14 765
7.16 749
7.18 791
7.2 809
7.22 808
7.24 798
7.26 770
7.28 782
7.3 849
7.32 763
7.34 759
7.36 792
7.38 800
7.4 776
7.42 764
7.44 768
7.46 763
7.48 787
7.5 739
7.52 770
7.54 822
7.56 799
7.58 806
7.6 801
7.62 766
7.64 802
7.66 750
7.68 774
7.7 851
7.72 803
7.74 743
7.76 777
7.78 777
7.8 773
7.82 766
7.84 813
7.86 845
7.88 833
7.9 777
7.92 801
7.94 754
7.96 781
7.98 765
8 740
8.02 806
8.04 803
8.06 830
8.08 782
8.1 827
8.12 773
8.14 774
8.16 729
8.18 737
8.2 797
8.22 767
8.24 805
8.26 761
8.28 781
8.3 766
8.32 771
8.34 803
8.36 804
8.38 777
8.4 758
8.42 759
8.44 748
8.46 760
8.48 765
8.5 768
8.52 706
8.54 767
8.56 761
8.58 722
8.6 751
8.62 785
8.64 783
8.66 750
8.68 811
8.7 766
8.72 807
8.74 815
8.76 810
8.78 766
8.8 753
8.82 774
8.84 820
8.86 759
8.88 791
8.9 820
8.92 794
8.94 846
8.96 828
8.98 867
9 848
9.02 874
9.04 883
9.06 891
9.08 897
9.1 927
9.12 952
9.14 934
9.16 1003
9.18 1022
9.2 1044
9.22 1026
9.24 1194
9.26 1305
9.28 1296
9.3 1463
9.32 1590
9.34 1734
9.36 1810
9.38 1582
9.4 1342
9.42 1203
9.44 1002
9.46 933
9.48 894
9.5 896
9.52 917
9.54 851
9.56 831
9.58 863
9.6 839
9.62 883
9.64 880
9.66 822
9.68 836
9.7 904
9.72 827
9.74 788
9.76 797
9.78 839
9.8 806
9.82 800
9.84 819
9.86 880
9.88 877
9.9 810
9.92 779
9.94 735
9.96 783
9.98 825
10 829
10.02 796
10.04 816
10.06 792
10.08 789
10.1 770
10.12 783
10.14 798
10.16 824
10.18 818
10.2 843
10.22 829
10.24 852
10.26 800
10.28 816
10.3 796
10.32 783
10.34 794
10.36 821
10.38 811
10.4 853
10.42 866
10.44 798
10.46 808
10.48 854
10.5 860
10.52 863
10.54 862
10.56 914
10.58 945
10.6 942
10.62 967
10.64 1003
10.66 1005
10.68 1027
10.7 1036
10.72 1083
10.74 1138
10.76 1295
10.78 1363
10.8 1345
10.82 1250
10.84 1207
10.86 1068
10.88 945
10.9 1081
10.92 1046
10.94 962
10.96 955
10.98 850
11 908
11.02 883
11.04 880
11.06 878
11.08 797
11.1 843
11.12 860
11.14 848
11.16 797
11.18 837
11.2 885
11.22 792
11.24 835
11.26 822
11.28 823
11.3 886
11.32 854
11.34 800
11.36 833
11.38 863
11.4 810
11.42 822
11.44 829
11.46 813
11.48 823
11.5 830
11.52 878
11.54 795
11.56 861
11.58 811
11.6 828
11.62 839
11.64 837
11.66 843
11.68 857
11.7 866
11.72 805
11.74 889
11.76 834
11.78 801
11.8 863
11.82 853
11.84 841
11.86 856
11.88 900
11.9 888
11.92 906
11.94 779
11.96 825
11.98 877
12 893
12.02 882
12.04 837
12.06 853
12.08 864
12.1 862
12.12 852
12.14 907
12.16 841
12.18 855
12.2 822
12.22 929
12.24 902
12.26 908
12.28 954
12.3 906
12.32 929
12.34 913
12.36 919
12.38 930
12.4 956
12.42 899
12.44 890
12.46 843
12.48 901
12.5 890
12.52 936
12.54 887
12.56 928
12.58 921
12.6 890
12.62 855
12.64 856
12.66 933
12.68 905
12.7 898
12.72 897
12.74 959
12.76 901
12.78 886
12.8 889
12.82 941
12.84 943
12.86 957
12.88 933
12.9 982
12.92 942
12.94 941
12.96 933
12.98 941
13 970
13.02 941
13.04 903
13.06 909
13.08 968
13.1 947
13.12 994
13.14 957
13.16 946
13.18 923
13.2 957
13.22 971
13.24 945
13.26 973
13.28 962
13.3 939
13.32 997
13.34 1048
13.36 1005
13.38 961
13.4 938
13.42 986
13.44 940
13.46 994
13.48 1003
13.5 939
13.52 977
13.54 1012
13.56 963
13.58 986
13.6 1013
13.62 972
13.64 1009
13.66 1006
13.68 991
13.7 1029
13.72 1030
13.74 1007
13.76 991
13.78 1027
13.8 992
13.82 1038
13.84 1033
13.86 997
13.88 969
13.9 1008
13.92 1000
13.94 1005
13.96 1040
13.98 1028
14 1018
14.02 1061
14.04 1045
14.06 1030
14.08 1094
14.1 996
14.12 1013
14.14 992
14.16 1035
14.18 1050
14.2 1081
14.22 1118
14.24 1047
14.26 1101
14.28 1070
14.3 1112
14.32 1075
14.34 1056
14.36 1094
14.38 1079
14.4 1024
14.42 1078
14.44 1096
14.46 1093
14.48 1114
14.5 1023
14.52 1052
14.54 1094
14.56 1054
14.58 1047
14.6 1055
14.62 1054
14.64 1048
14.66 1047
14.68 1096
14.7 1095
14.72 1086
14.74 1083
14.76 1101
14.78 1119
14.8 1073
14.82 1057
14.84 1091
14.86 1067
14.88 1083
14.9 1110
14.92 1118
14.94 1133
14.96 1176
14.98 1114
15 1070
15.02 1088
15.04 1123
15.06 1143
15.08 1112
15.1 1091
15.12 1141
15.14 1168
15.16 1167
15.18 1170
15.2 1132
15.22 1125
15.24 1127
15.26 1115
15.28 1157
15.3 1173
15.32 1116
15.34 1076
15.36 1104
15.38 1165
15.4 1131
15.42 1134
15.44 1194
15.46 1162
15.48 1159
15.5 1230
15.52 1151
15.54 1158
15.56 1240
15.58 1209
15.6 1212
15.62 1192
15.64 1206
15.66 1194
15.68 1238
15.7 1203
15.72 1177
15.74 1229
15.76 1223
15.78 1244
15.8 1180
15.82 1246
15.84 1217
15.86 1199
15.88 1218
15.9 1221
15.92 1245
15.94 1262
15.96 1165
15.98 1215
16 1235
16.02 1218
16.04 1278
16.06 1273
16.08 1232
16.1 1264
16.12 1265
16.14 1270
16.16 1253
16.18 1304
16.2 1294
16.22 1273
16.24 1239
16.26 1277
16.28 1339
16.3 1282
16.32 1362
16.34 1258
16.36 1267
16.38 1324
16.4 1246
16.42 1351
16.44 1340
16.46 1358
16.48 1332
16.5 1389
16.52 1369
16.54 1342
16.56 1369
16.58 1366
16.6 1390
16.62 1376
16.64 1416
16.66 1349
16.68 1330
16.7 1307
16.72 1401
16.74 1425
16.76 1434
16.78 1479
16.8 1534
16.82 1400
16.84 1419
16.86 1505
16.88 1604
16.9 1567
16.92 1704
16.94 1757
16.96 1903
16.98 1928
17 2015
17.02 1997
17.04 2027
17.06 1824
17.08 1753
17.1 1666
17.12 1620
17.14 1549
17.16 1478
17.18 1557
17.2 1506
17.22 1496
17.24 1541
17.26 1450
17.28 1544
17.3 1534
17.32 1528
17.34 1479
17.36 1529
17.38 1496
17.4 1502
17.42 1484
17.44 1530
17.46 1490
17.48 1520
17.5 1551
17.52 1524
17.54 1539
17.56 1534
17.58 1556
17.6 1523
17.62 1554
17.64 1623
17.66 1597
17.68 1575
17.7 1567
17.72 1552
17.74 1504
17.76 1623
17.78 1575
17.8 1568
17.82 1625
17.84 1606
17.86 1582
17.88 1651
17.9 1594
17.92 1580
17.94 1557
17.96 1573
17.98 1635
18 1699
18.02 1618
18.04 1599
18.06 1653
18.08 1598
18.1 1625
18.12 1576
18.14 1664
18.16 1649
18.18 1673
18.2 1693
18.22 1602
18.24 1647
18.26 1730
18.28 1661
18.3 1641
18.32 1718
18.34 1636
18.36 1622
18.38 1626
18.4 1660
18.42 1640
18.44 1672
18.46 1667
18.48 1660
18.5 1681
18.52 1747
18.54 1778
18.56 1751
18.58 1722
18.6 1710
18.62 1763
18.64 1722
18.66 1800
18.68 1757
18.7 1882
18.72 1815
18.74 1779
18.76 1845
18.78 1802
18.8 1763
18.82 1750
18.84 1797
18.86 1795
18.88 1825
18.9 1817
18.92 1861
18.94 1838
18.96 1761
18.98 1778
19 1839
19.02 1826
19.04 1841
19.06 1843
19.08 1869
19.1 1831
19.12 1862
19.14 1882
19.16 1875
19.18 1860
19.2 1815
19.22 1888
19.24 1857
19.26 1876
19.28 1951
19.3 1964
19.32 1930
19.34 1976
19.36 1892
19.38 1876
19.4 1983
19.42 2032
19.44 2071
19.46 2018
19.48 2056
19.5 2076
19.52 2009
19.54 2072
19.56 1989
19.58 2034
19.6 2002
19.62 2035
19.64 1965
19.66 1864
19.68 1942
19.7 1959
19.72 2048
19.74 2016
19.76 1995
19.78 1977
19.8 1992
19.82 1992
19.84 1962
19.86 2024
19.88 1983
19.9 2009
19.92 1991
19.94 2027
19.96 2057
19.98 2024
20 2033