File: xrd-UiO-67/pxrddata/46-4.ASC
3 2949
3.02 2854
3.04 2674
3.06 2553
3.08 2432
3.1 2309
3.12 2231
3.14 2240
3.16 2127
3.18 2108
3.2 2083
3.22 2032
3.24 2062
3.26 1989
3.28 1946
3.3 1939
3.32 1959
3.34 1955
3.36 1929
3.38 1870
3.4 1901
3.42 1947
3.44 1818
3.46 1742
3.48 1882
3.5 1701
3.52 1756
3.54 1753
3.56 1684
3.58 1677
3.6 1716
3.62 1601
3.64 1533
3.66 1573
3.68 1527
3.7 1478
3.72 1505
3.74 1540
3.76 1479
3.78 1468
3.8 1437
3.82 1446
3.84 1447
3.86 1517
3.88 1343
3.9 1369
3.92 1354
3.94 1298
3.96 1319
3.98 1254
4 1349
4.02 1267
4.04 1330
4.06 1261
4.08 1246
4.1 1170
4.12 1229
4.14 1140
4.16 1131
4.18 1226
4.2 1188
4.22 1142
4.24 1210
4.26 1199
4.28 1186
4.3 1173
4.32 1189
4.34 1099
4.36 1040
4.38 1067
4.4 1120
4.42 1105
4.44 1152
4.46 1075
4.48 1101
4.5 1032
4.52 998
4.54 969
4.56 1028
4.58 1017
4.6 1002
4.62 1028
4.64 965
4.66 910
4.68 994
4.7 898
4.72 950
4.74 975
4.76 989
4.78 928
4.8 968
4.82 952
4.84 942
4.86 958
4.88 905
4.9 909
4.92 945
4.94 887
4.96 940
4.98 949
5 949
5.02 927
5.04 859
5.06 946
5.08 900
5.1 891
5.12 917
5.14 894
5.16 909
5.18 918
5.2 851
5.22 879
5.24 922
5.26 967
5.28 942
5.3 891
5.32 889
5.34 911
5.36 933
5.38 913
5.4 973
5.42 999
5.44 986
5.46 991
5.48 1036
5.5 1040
5.52 982
5.54 990
5.56 890
5.58 872
5.6 882
5.62 916
5.64 870
5.66 851
5.68 849
5.7 823
5.72 816
5.74 827
5.76 814
5.78 753
5.8 866
5.82 794
5.84 812
5.86 771
5.88 805
5.9 782
5.92 717
5.94 765
5.96 752
5.98 741
6 710
6.02 757
6.04 783
6.06 764
6.08 705
6.1 762
6.12 760
6.14 721
6.16 696
6.18 702
6.2 742
6.22 726
6.24 721
6.26 747
6.28 730
6.3 699
6.32 697
6.34 722
6.36 725
6.38 715
6.4 747
6.42 752
6.44 702
6.46 682
6.48 707
6.5 718
6.52 665
6.54 685
6.56 752
6.58 700
6.6 727
6.62 698
6.64 710
6.66 733
6.68 690
6.7 650
6.72 743
6.74 676
6.76 742
6.78 708
6.8 679
6.82 712
6.84 684
6.86 683
6.88 705
6.9 717
6.92 689
6.94 666
6.96 688
6.98 689
7 656
7.02 731
7.04 675
7.06 657
7.08 680
7.1 636
7.12 680
7.14 677
7.16 683
7.18 630
7.2 700
7.22 665
7.24 620
7.26 696
7.28 687
7.3 714
7.32 655
7.34 654
7.36 677
7.38 667
7.4 667
7.42 643
7.44 664
7.46 656
7.48 695
7.5 692
7.52 605
7.54 619
7.56 692
7.58 667
7.6 660
7.62 639
7.64 617
7.66 642
7.68 590
7.7 659
7.72 659
7.74 647
7.76 631
7.78 670
7.8 650
7.82 655
7.84 637
7.86 588
7.88 622
7.9 632
7.92 650
7.94 639
7.96 624
7.98 672
8 661
8.02 627
8.04 608
8.06 625
8.08 605
8.1 611
8.12 647
8.14 610
8.16 639
8.18 626
8.2 617
8.22 608
8.24 645
8.26 631
8.28 645
8.3 640
8.32 663
8.34 668
8.36 606
8.38 644
8.4 564
8.42 617
8.44 616
8.46 664
8.48 657
8.5 646
8.52 649
8.54 608
8.56 605
8.58 576
8.6 601
8.62 621
8.64 606
8.66 629
8.68 625
8.7 612
8.72 614
8.74 624
8.76 579
8.78 637
8.8 651
8.82 643
8.84 649
8.86 625
8.88 666
8.9 575
8.92 570
8.94 629
8.96 621
8.98 585
9 636
9.02 596
9.04 613
9.06 590
9.08 626
9.1 645
9.12 605
9.14 676
9.16 663
9.18 616
9.2 596
9.22 660
9.24 650
9.26 646
9.28 668
9.3 642
9.32 632
9.34 682
9.36 688
9.38 667
9.4 733
9.42 650
9.44 749
9.46 667
9.48 653
9.5 674
9.52 651
9.54 675
9.56 605
9.58 629
9.6 596
9.62 601
9.64 607
9.66 640
9.68 649
9.7 650
9.72 624
9.74 607
9.76 605
9.78 626
9.8 588
9.82 595
9.84 611
9.86 587
9.88 604
9.9 596
9.92 593
9.94 647
9.96 592
9.98 585
10 558
10.02 551
10.04 607
10.06 617
10.08 558
10.1 642
10.12 637
10.14 609
10.16 580
10.18 645
10.2 626
10.22 598
10.24 565
10.26 584
10.28 579
10.3 626
10.32 591
10.34 587
10.36 616
10.38 605
10.4 619
10.42 638
10.44 594
10.46 624
10.48 623
10.5 569
10.52 593
10.54 569
10.56 576
10.58 580
10.6 583
10.62 618
10.64 610
10.66 609
10.68 589
10.7 628
10.72 606
10.74 618
10.76 586
10.78 594
10.8 627
10.82 608
10.84 595
10.86 611
10.88 591
10.9 581
10.92 614
10.94 610
10.96 576
10.98 635
11 620
11.02 635
11.04 637
11.06 608
11.08 599
11.1 604
11.12 573
11.14 590
11.16 602
11.18 569
11.2 587
11.22 544
11.24 592
11.26 604
11.28 622
11.3 600
11.32 576
11.34 593
11.36 575
11.38 555
11.4 575
11.42 603
11.44 631
11.46 570
11.48 568
11.5 578
11.52 563
11.54 564
11.56 626
11.58 541
11.6 565
11.62 584
11.64 551
11.66 578
11.68 605
11.7 576
11.72 639
11.74 565
11.76 574
11.78 655
11.8 619
11.82 616
11.84 628
11.86 627
11.88 575
11.9 609
11.92 594
11.94 589
11.96 638
11.98 576
12 583
12.02 635
12.04 608
12.06 599
12.08 620
12.1 627
12.12 644
12.14 591
12.16 625
12.18 600
12.2 660
12.22 623
12.24 581
12.26 596
12.28 583
12.3 609
12.32 567
12.34 635
12.36 598
12.38 599
12.4 569
12.42 601
12.44 625
12.46 560
12.48 595
12.5 593
12.52 593
12.54 551
12.56 585
12.58 599
12.6 595
12.62 596
12.64 628
12.66 572
12.68 583
12.7 618
12.72 584
12.74 635
12.76 622
12.78 628
12.8 610
12.82 594
12.84 644
12.86 637
12.88 604
12.9 646
12.92 642
12.94 602
12.96 643
12.98 627
13 639
13.02 572
13.04 601
13.06 636
13.08 666
13.1 656
13.12 654
13.14 608
13.16 670
13.18 635
13.2 628
13.22 627
13.24 634
13.26 594
13.28 634
13.3 624
13.32 612
13.34 639
13.36 683
13.38 649
13.4 665
13.42 641
13.44 625
13.46 617
13.48 663
13.5 646
13.52 654
13.54 664
13.56 657
13.58 641
13.6 659
13.62 609
13.64 667
13.66 679
13.68 693
13.7 662
13.72 642
13.74 660
13.76 666
13.78 635
13.8 631
13.82 650
13.84 628
13.86 666
13.88 714
13.9 700
13.92 649
13.94 675
13.96 618
13.98 641
14 668
14.02 687
14.04 661
14.06 722
14.08 679
14.1 737
14.12 708
14.14 695
14.16 708
14.18 701
14.2 672
14.22 707
14.24 727
14.26 689
14.28 664
14.3 654
14.32 676
14.34 730
14.36 704
14.38 697
14.4 738
14.42 732
14.44 719
14.46 705
14.48 698
14.5 724
14.52 753
14.54 703
14.56 705
14.58 773
14.6 716
14.62 691
14.64 703
14.66 680
14.68 710
14.7 707
14.72 758
14.74 691
14.76 765
14.78 713
14.8 722
14.82 710
14.84 705
14.86 713
14.88 774
14.9 733
14.92 713
14.94 769
14.96 782
14.98 740
15 698
15.02 723
15.04 788
15.06 731
15.08 728
15.1 733
15.12 723
15.14 763
15.16 744
15.18 751
15.2 725
15.22 740
15.24 771
15.26 770
15.28 759
15.3 759
15.32 761
15.34 787
15.36 772
15.38 781
15.4 762
15.42 744
15.44 762
15.46 791
15.48 822
15.5 826
15.52 800
15.54 795
15.56 789
15.58 790
15.6 831
15.62 735
15.64 804
15.66 805
15.68 766
15.7 824
15.72 792
15.74 773
15.76 793
15.78 782
15.8 847
15.82 763
15.84 836
15.86 817
15.88 818
15.9 767
15.92 784
15.94 850
15.96 798
15.98 784
16 814
16.02 839
16.04 855
16.06 807
16.08 831
16.1 820
16.12 801
16.14 838
16.16 838
16.18 819
16.2 830
16.22 836
16.24 822
16.26 899
16.28 884
16.3 868
16.32 859
16.34 839
16.36 905
16.38 904
16.4 892
16.42 917
16.44 860
16.46 896
16.48 899
16.5 945
16.52 937
16.54 932
16.56 920
16.58 865
16.6 894
16.62 856
16.64 882
16.66 894
16.68 924
16.7 935
16.72 859
16.74 932
16.76 939
16.78 920
16.8 988
16.82 984
16.84 1051
16.86 1016
16.88 1028
16.9 1031
16.92 1028
16.94 1140
16.96 1203
16.98 1266
17 1294
17.02 1299
17.04 1389
17.06 1382
17.08 1344
17.1 1164
17.12 1139
17.14 1100
17.16 1043
17.18 1060
17.2 992
17.22 1013
17.24 985
17.26 1008
17.28 1011
17.3 996
17.32 1018
17.34 1033
17.36 984
17.38 975
17.4 991
17.42 1033
17.44 996
17.46 1004
17.48 1044
17.5 965
17.52 1014
17.54 1020
17.56 992
17.58 1024
17.6 1016
17.62 1042
17.64 1060
17.66 1041
17.68 1011
17.7 1061
17.72 1049
17.74 976
17.76 1070
17.78 1058
17.8 1042
17.82 1083
17.84 1046
17.86 1046
17.88 1057
17.9 1112
17.92 1132
17.94 1066
17.96 1038
17.98 1098
18 1091
18.02 1082
18.04 1079
18.06 1099
18.08 1111
18.1 1109
18.12 1148
18.14 1174
18.16 1136
18.18 1209
18.2 1200
18.22 1118
18.24 1090
18.26 1175
18.28 1136
18.3 1144
18.32 1165
18.34 1132
18.36 1156
18.38 1129
18.4 1206
18.42 1176
18.44 1137
18.46 1165
18.48 1154
18.5 1179
18.52 1164
18.54 1208
18.56 1189
18.58 1219
18.6 1188
18.62 1189
18.64 1197
18.66 1219
18.68 1243
18.7 1271
18.72 1201
18.74 1195
18.76 1127
18.78 1156
18.8 1258
18.82 1203
18.84 1255
18.86 1186
18.88 1204
18.9 1227
18.92 1246
18.94 1270
18.96 1274
18.98 1240
19 1274
19.02 1237
19.04 1289
19.06 1292
19.08 1275
19.1 1257
19.12 1275
19.14 1263
19.16 1287
19.18 1310
19.2 1312
19.22 1264
19.24 1351
19.26 1360
19.28 1326
19.3 1322
19.32 1289
19.34 1320
19.36 1334
19.38 1361
19.4 1340
19.42 1332
19.44 1369
19.46 1320
19.48 1328
19.5 1314
19.52 1340
19.54 1428
19.56 1319
19.58 1343
19.6 1345
19.62 1375
19.64 1366
19.66 1371
19.68 1451
19.7 1368
19.72 1401
19.74 1371
19.76 1412
19.78 1353
19.8 1346
19.82 1421
19.84 1469
19.86 1445
19.88 1415
19.9 1427
19.92 1434
19.94 1417
19.96 1407
19.98 1414
20 1425