File: xrd-UiO-67/pxrddata/47-15.ASC
3 2174
3.02 1949
3.04 1833
3.06 1733
3.08 1644
3.1 1598
3.12 1517
3.14 1532
3.16 1450
3.18 1447
3.2 1463
3.22 1394
3.24 1378
3.26 1406
3.28 1362
3.3 1373
3.32 1325
3.34 1360
3.36 1334
3.38 1361
3.4 1384
3.42 1320
3.44 1386
3.46 1354
3.48 1313
3.5 1334
3.52 1302
3.54 1258
3.56 1248
3.58 1229
3.6 1287
3.62 1215
3.64 1258
3.66 1239
3.68 1261
3.7 1255
3.72 1186
3.74 1271
3.76 1212
3.78 1221
3.8 1305
3.82 1227
3.84 1259
3.86 1244
3.88 1266
3.9 1243
3.92 1272
3.94 1313
3.96 1296
3.98 1333
4 1356
4.02 1407
4.04 1383
4.06 1389
4.08 1404
4.1 1460
4.12 1422
4.14 1419
4.16 1370
4.18 1275
4.2 1219
4.22 1208
4.24 1125
4.26 1129
4.28 1011
4.3 1013
4.32 1003
4.34 975
4.36 1042
4.38 985
4.4 1039
4.42 963
4.44 946
4.46 993
4.48 933
4.5 977
4.52 924
4.54 935
4.56 900
4.58 956
4.6 932
4.62 970
4.64 940
4.66 957
4.68 941
4.7 878
4.72 1006
4.74 894
4.76 1004
4.78 1049
4.8 993
4.82 967
4.84 1014
4.86 1016
4.88 996
4.9 1070
4.92 1074
4.94 1091
4.96 1151
4.98 1110
5 1164
5.02 1208
5.04 1189
5.06 1276
5.08 1308
5.1 1338
5.12 1295
5.14 1403
5.16 1435
5.18 1506
5.2 1622
5.22 1683
5.24 1794
5.26 1811
5.28 1994
5.3 2031
5.32 2210
5.34 2357
5.36 2452
5.38 2852
5.4 3167
5.42 3401
5.44 3501
5.46 3359
5.48 3028
5.5 2910
5.52 2694
5.54 2584
5.56 2640
5.58 2683
5.6 2796
5.62 2855
5.64 2975
5.66 3200
5.68 3331
5.7 3666
5.72 4051
5.74 4567
5.76 4818
5.78 5187
5.8 5006
5.82 4581
5.84 3838
5.86 3114
5.88 2411
5.9 1997
5.92 1667
5.94 1395
5.96 1293
5.98 1111
6 1069
6.02 957
6.04 1007
6.06 941
6.08 933
6.1 886
6.12 880
6.14 907
6.16 974
6.18 941
6.2 913
6.22 906
6.24 929
6.26 896
6.28 893
6.3 857
6.32 807
6.34 830
6.36 810
6.38 811
6.4 786
6.42 801
6.44 745
6.46 824
6.48 782
6.5 748
6.52 859
6.54 811
6.56 856
6.58 862
6.6 907
6.62 857
6.64 912
6.66 903
6.68 950
6.7 950
6.72 1028
6.74 1064
6.76 1073
6.78 1085
6.8 993
6.82 1041
6.84 905
6.86 841
6.88 800
6.9 808
6.92 817
6.94 748
6.96 743
6.98 725
7 645
7.02 711
7.04 701
7.06 704
7.08 695
7.1 688
7.12 643
7.14 671
7.16 704
7.18 614
7.2 665
7.22 659
7.24 664
7.26 686
7.28 671
7.3 697
7.32 643
7.34 616
7.36 648
7.38 658
7.4 657
7.42 653
7.44 666
7.46 627
7.48 650
7.5 628
7.52 651
7.54 616
7.56 681
7.58 645
7.6 637
7.62 694
7.64 674
7.66 635
7.68 643
7.7 658
7.72 664
7.74 650
7.76 667
7.78 651
7.8 606
7.82 657
7.84 678
7.86 684
7.88 681
7.9 702
7.92 711
7.94 677
7.96 680
7.98 648
8 666
8.02 701
8.04 737
8.06 719
8.08 718
8.1 724
8.12 706
8.14 728
8.16 727
8.18 712
8.2 688
8.22 734
8.24 724
8.26 664
8.28 672
8.3 658
8.32 693
8.34 715
8.36 688
8.38 649
8.4 644
8.42 686
8.44 674
8.46 714
8.48 693
8.5 685
8.52 652
8.54 677
8.56 678
8.58 721
8.6 667
8.62 650
8.64 652
8.66 636
8.68 645
8.7 669
8.72 728
8.74 649
8.76 732
8.78 713
8.8 678
8.82 731
8.84 744
8.86 716
8.88 724
8.9 734
8.92 740
8.94 753
8.96 724
8.98 772
9 783
9.02 769
9.04 809
9.06 822
9.08 788
9.1 897
9.12 974
9.14 997
9.16 957
9.18 1026
9.2 1121
9.22 1157
9.24 1294
9.26 1387
9.28 1545
9.3 1736
9.32 1917
9.34 2109
9.36 2230
9.38 1916
9.4 1598
9.42 1324
9.44 1021
9.46 925
9.48 860
9.5 819
9.52 795
9.54 819
9.56 736
9.58 751
9.6 709
9.62 749
9.64 716
9.66 765
9.68 781
9.7 755
9.72 705
9.74 729
9.76 728
9.78 772
9.8 746
9.82 783
9.84 749
9.86 758
9.88 795
9.9 788
9.92 705
9.94 745
9.96 766
9.98 784
10 817
10.02 829
10.04 807
10.06 845
10.08 893
10.1 932
10.12 930
10.14 994
10.16 1060
10.18 1097
10.2 1123
10.22 1116
10.24 1001
10.26 951
10.28 857
10.3 820
10.32 761
10.34 735
10.36 732
10.38 798
10.4 755
10.42 689
10.44 746
10.46 756
10.48 733
10.5 718
10.52 719
10.54 780
10.56 752
10.58 791
10.6 803
10.62 865
10.64 916
10.66 860
10.68 904
10.7 989
10.72 1040
10.74 1021
10.76 1156
10.78 1211
10.8 1291
10.82 1308
10.84 1185
10.86 1237
10.88 1246
10.9 1295
10.92 1360
10.94 1399
10.96 1529
10.98 1681
11 1544
11.02 1327
11.04 1126
11.06 933
11.08 923
11.1 825
11.12 791
11.14 807
11.16 780
11.18 826
11.2 756
11.22 728
11.24 735
11.26 745
11.28 763
11.3 776
11.32 814
11.34 813
11.36 858
11.38 857
11.4 859
11.42 866
11.44 930
11.46 983
11.48 1032
11.5 1075
11.52 1106
11.54 993
11.56 1044
11.58 935
11.6 900
11.62 858
11.64 838
11.66 782
11.68 812
11.7 811
11.72 756
11.74 812
11.76 722
11.78 736
11.8 761
11.82 777
11.84 773
11.86 726
11.88 763
11.9 749
11.92 721
11.94 710
11.96 805
11.98 781
12 769
12.02 746
12.04 820
12.06 790
12.08 786
12.1 821
12.12 810
12.14 846
12.16 829
12.18 882
12.2 852
12.22 932
12.24 926
12.26 861
12.28 898
12.3 878
12.32 882
12.34 782
12.36 816
12.38 818
12.4 837
12.42 796
12.44 853
12.46 777
12.48 710
12.5 738
12.52 757
12.54 734
12.56 772
12.58 779
12.6 802
12.62 769
12.64 736
12.66 711
12.68 756
12.7 803
12.72 792
12.74 777
12.76 754
12.78 737
12.8 764
12.82 766
12.84 758
12.86 770
12.88 735
12.9 717
12.92 844
12.94 794
12.96 797
12.98 777
13 807
13.02 781
13.04 801
13.06 790
13.08 786
13.1 759
13.12 763
13.14 837
13.16 825
13.18 786
13.2 783
13.22 789
13.24 858
13.26 815
13.28 844
13.3 867
13.32 860
13.34 883
13.36 886
13.38 896
13.4 836
13.42 828
13.44 857
13.46 867
13.48 862
13.5 827
13.52 817
13.54 831
13.56 876
13.58 834
13.6 840
13.62 848
13.64 796
13.66 795
13.68 837
13.7 761
13.72 784
13.74 805
13.76 793
13.78 834
13.8 817
13.82 829
13.84 827
13.86 833
13.88 796
13.9 886
13.92 825
13.94 847
13.96 830
13.98 834
14 868
14.02 773
14.04 842
14.06 838
14.08 860
14.1 821
14.12 836
14.14 860
14.16 878
14.18 891
14.2 884
14.22 897
14.24 891
14.26 909
14.28 927
14.3 952
14.32 926
14.34 869
14.36 942
14.38 951
14.4 971
14.42 1005
14.44 897
14.46 891
14.48 936
14.5 916
14.52 884
14.54 917
14.56 877
14.58 884
14.6 903
14.62 952
14.64 889
14.66 913
14.68 922
14.7 939
14.72 945
14.74 1003
14.76 968
14.78 939
14.8 1001
14.82 1025
14.84 1013
14.86 1003
14.88 999
14.9 997
14.92 969
14.94 957
14.96 948
14.98 925
15 960
15.02 972
15.04 941
15.06 936
15.08 930
15.1 954
15.12 1000
15.14 962
15.16 978
15.18 1006
15.2 1000
15.22 965
15.24 1003
15.26 958
15.28 975
15.3 976
15.32 966
15.34 926
15.36 994
15.38 975
15.4 994
15.42 975
15.44 937
15.46 902
15.48 1018
15.5 984
15.52 947
15.54 934
15.56 920
15.58 941
15.6 996
15.62 944
15.64 965
15.66 944
15.68 1013
15.7 980
15.72 1050
15.74 998
15.76 989
15.78 919
15.8 937
15.82 1022
15.84 1010
15.86 1015
15.88 969
15.9 1011
15.92 1061
15.94 1016
15.96 984
15.98 1019
16 1004
16.02 1088
16.04 1061
16.06 1067
16.08 1000
16.1 1067
16.12 1060
16.14 1056
16.16 1077
16.18 1105
16.2 1103
16.22 1137
16.24 1160
16.26 1100
16.28 1129
16.3 1148
16.32 1184
16.34 1150
16.36 1129
16.38 1170
16.4 1110
16.42 1123
16.44 1134
16.46 1181
16.48 1112
16.5 1068
16.52 1109
16.54 1151
16.56 1119
16.58 1160
16.6 1175
16.62 1136
16.64 1124
16.66 1208
16.68 1129
16.7 1166
16.72 1177
16.74 1115
16.76 1147
16.78 1156
16.8 1142
16.82 1177
16.84 1301
16.86 1249
16.88 1430
16.9 1375
16.92 1463
16.94 1600
16.96 1738
16.98 1978
17 2278
17.02 2340
17.04 2252
17.06 1910
17.08 1714
17.1 1414
17.12 1298
17.14 1204
17.16 1192
17.18 1243
17.2 1264
17.22 1226
17.24 1265
17.26 1263
17.28 1253
17.3 1268
17.32 1268
17.34 1252
17.36 1301
17.38 1297
17.4 1234
17.42 1267
17.44 1272
17.46 1255
17.48 1199
17.5 1270
17.52 1252
17.54 1340
17.56 1293
17.58 1267
17.6 1286
17.62 1252
17.64 1279
17.66 1336
17.68 1294
17.7 1293
17.72 1324
17.74 1333
17.76 1311
17.78 1323
17.8 1377
17.82 1301
17.84 1313
17.86 1282
17.88 1390
17.9 1428
17.92 1341
17.94 1400
17.96 1315
17.98 1355
18 1376
18.02 1296
18.04 1336
18.06 1364
18.08 1340
18.1 1354
18.12 1331
18.14 1397
18.16 1315
18.18 1327
18.2 1357
18.22 1374
18.24 1338
18.26 1338
18.28 1364
18.3 1359
18.32 1383
18.34 1346
18.36 1371
18.38 1366
18.4 1370
18.42 1376
18.44 1375
18.46 1426
18.48 1447
18.5 1363
18.52 1418
18.54 1363
18.56 1374
18.58 1424
18.6 1438
18.62 1577
18.64 1478
18.66 1502
18.68 1544
18.7 1577
18.72 1547
18.74 1545
18.76 1533
18.78 1561
18.8 1557
18.82 1588
18.84 1556
18.86 1566
18.88 1520
18.9 1545
18.92 1571
18.94 1542
18.96 1470
18.98 1619
19 1543
19.02 1589
19.04 1565
19.06 1645
19.08 1663
19.1 1762
19.12 1797
19.14 1754
19.16 1765
19.18 1695
19.2 1738
19.22 1691
19.24 1720
19.26 1689
19.28 1578
19.3 1609
19.32 1555
19.34 1615
19.36 1607
19.38 1676
19.4 1679
19.42 1735
19.44 1798
19.46 1808
19.48 1933
19.5 1854
19.52 1935
19.54 1903
19.56 1944
19.58 1899
19.6 1932
19.62 1837
19.64 1697
19.66 1711
19.68 1693
19.7 1589
19.72 1592
19.74 1568
19.76 1610
19.78 1663
19.8 1603
19.82 1652
19.84 1673
19.86 1706
19.88 1737
19.9 1733
19.92 1644
19.94 1729
19.96 1691
19.98 1663
20 1649