File: xrd-UiO-67/pxrddata/48-1.ASC
3 2213
3.02 2102
3.04 1936
3.06 1819
3.08 1734
3.1 1641
3.12 1553
3.14 1620
3.16 1568
3.18 1556
3.2 1479
3.22 1531
3.24 1449
3.26 1488
3.28 1415
3.3 1395
3.32 1417
3.34 1346
3.36 1360
3.38 1396
3.4 1390
3.42 1342
3.44 1385
3.46 1319
3.48 1345
3.5 1284
3.52 1291
3.54 1296
3.56 1278
3.58 1288
3.6 1257
3.62 1329
3.64 1221
3.66 1237
3.68 1234
3.7 1192
3.72 1269
3.74 1206
3.76 1200
3.78 1201
3.8 1193
3.82 1205
3.84 1147
3.86 1217
3.88 1214
3.9 1171
3.92 1226
3.94 1204
3.96 1166
3.98 1182
4 1160
4.02 1169
4.04 1168
4.06 1252
4.08 1222
4.1 1184
4.12 1237
4.14 1210
4.16 1149
4.18 1204
4.2 1166
4.22 1140
4.24 1145
4.26 1082
4.28 1071
4.3 1076
4.32 1054
4.34 1071
4.36 1050
4.38 1008
4.4 1032
4.42 1002
4.44 1016
4.46 978
4.48 972
4.5 982
4.52 1000
4.54 1037
4.56 989
4.58 1025
4.6 1034
4.62 941
4.64 1023
4.66 979
4.68 991
4.7 974
4.72 973
4.74 964
4.76 965
4.78 1013
4.8 995
4.82 1017
4.84 1061
4.86 1033
4.88 1062
4.9 1115
4.92 1108
4.94 1066
4.96 1055
4.98 1124
5 1188
5.02 1103
5.04 1164
5.06 1141
5.08 1204
5.1 1314
5.12 1325
5.14 1308
5.16 1382
5.18 1505
5.2 1552
5.22 1625
5.24 1716
5.26 1795
5.28 1817
5.3 1938
5.32 2000
5.34 2302
5.36 2502
5.38 2771
5.4 3167
5.42 3362
5.44 3293
5.46 2810
5.48 2509
5.5 2432
5.52 2234
5.54 2158
5.56 2155
5.58 2041
5.6 2022
5.62 2126
5.64 2223
5.66 2215
5.68 2352
5.7 2395
5.72 2367
5.74 2506
5.76 2557
5.78 2353
5.8 2158
5.82 1875
5.84 1686
5.86 1491
5.88 1319
5.9 1145
5.92 1066
5.94 1042
5.96 956
5.98 990
6 990
6.02 937
6.04 929
6.06 865
6.08 816
6.1 847
6.12 823
6.14 834
6.16 851
6.18 854
6.2 851
6.22 835
6.24 778
6.26 812
6.28 816
6.3 785
6.32 772
6.34 788
6.36 768
6.38 765
6.4 793
6.42 792
6.44 763
6.46 762
6.48 811
6.5 773
6.52 797
6.54 789
6.56 794
6.58 829
6.6 784
6.62 773
6.64 836
6.66 833
6.68 786
6.7 812
6.72 825
6.74 864
6.76 849
6.78 868
6.8 823
6.82 805
6.84 824
6.86 779
6.88 746
6.9 751
6.92 699
6.94 753
6.96 768
6.98 687
7 703
7.02 697
7.04 681
7.06 700
7.08 722
7.1 751
7.12 697
7.14 688
7.16 673
7.18 693
7.2 703
7.22 686
7.24 756
7.26 707
7.28 686
7.3 645
7.32 665
7.34 662
7.36 697
7.38 699
7.4 699
7.42 671
7.44 682
7.46 663
7.48 691
7.5 692
7.52 686
7.54 679
7.56 704
7.58 707
7.6 733
7.62 695
7.64 678
7.66 677
7.68 668
7.7 688
7.72 685
7.74 704
7.76 663
7.78 758
7.8 654
7.82 729
7.84 704
7.86 719
7.88 712
7.9 691
7.92 762
7.94 710
7.96 681
7.98 733
8 683
8.02 711
8.04 703
8.06 720
8.08 691
8.1 740
8.12 735
8.14 739
8.16 695
8.18 707
8.2 665
8.22 656
8.24 708
8.26 694
8.28 671
8.3 706
8.32 693
8.34 709
8.36 670
8.38 668
8.4 686
8.42 653
8.44 679
8.46 709
8.48 694
8.5 681
8.52 680
8.54 712
8.56 630
8.58 705
8.6 678
8.62 675
8.64 665
8.66 659
8.68 676
8.7 666
8.72 697
8.74 677
8.76 674
8.78 700
8.8 685
8.82 731
8.84 713
8.86 698
8.88 688
8.9 674
8.92 754
8.94 734
8.96 698
8.98 725
9 758
9.02 771
9.04 763
9.06 813
9.08 790
9.1 845
9.12 830
9.14 862
9.16 894
9.18 883
9.2 975
9.22 989
9.24 1030
9.26 1148
9.28 1288
9.3 1410
9.32 1698
9.34 1741
9.36 1534
9.38 1269
9.4 1071
9.42 905
9.44 849
9.46 801
9.48 794
9.5 737
9.52 772
9.54 762
9.56 734
9.58 746
9.6 705
9.62 666
9.64 706
9.66 765
9.68 703
9.7 745
9.72 706
9.74 717
9.76 762
9.78 681
9.8 749
9.82 800
9.84 714
9.86 773
9.88 744
9.9 707
9.92 692
9.94 742
9.96 757
9.98 744
10 717
10.02 725
10.04 764
10.06 762
10.08 811
10.1 785
10.12 830
10.14 807
10.16 824
10.18 860
10.2 828
10.22 825
10.24 811
10.26 789
10.28 739
10.3 787
10.32 735
10.34 760
10.36 763
10.38 700
10.4 753
10.42 741
10.44 771
10.46 719
10.48 731
10.5 737
10.52 732
10.54 731
10.56 784
10.58 779
10.6 772
10.62 824
10.64 791
10.66 815
10.68 863
10.7 882
10.72 941
10.74 979
10.76 1043
10.78 1125
10.8 1030
10.82 1090
10.84 1052
10.86 964
10.88 970
10.9 1021
10.92 1068
10.94 1101
10.96 1048
10.98 961
11 956
11.02 946
11.04 876
11.06 802
11.08 764
11.1 809
11.12 779
11.14 716
11.16 751
11.18 767
11.2 744
11.22 691
11.24 731
11.26 748
11.28 716
11.3 749
11.32 760
11.34 777
11.36 828
11.38 794
11.4 751
11.42 785
11.44 802
11.46 741
11.48 761
11.5 797
11.52 772
11.54 767
11.56 856
11.58 736
11.6 797
11.62 822
11.64 803
11.66 791
11.68 785
11.7 795
11.72 755
11.74 737
11.76 703
11.78 773
11.8 797
11.82 760
11.84 723
11.86 746
11.88 771
11.9 776
11.92 768
11.94 763
11.96 740
11.98 796
12 780
12.02 773
12.04 788
12.06 800
12.08 775
12.1 787
12.12 788
12.14 790
12.16 761
12.18 800
12.2 757
12.22 812
12.24 811
12.26 893
12.28 872
12.3 809
12.32 804
12.34 818
12.36 784
12.38 815
12.4 778
12.42 820
12.44 821
12.46 743
12.48 757
12.5 822
12.52 768
12.54 710
12.56 778
12.58 763
12.6 789
12.62 743
12.64 786
12.66 814
12.68 755
12.7 709
12.72 770
12.74 810
12.76 784
12.78 820
12.8 745
12.82 808
12.84 801
12.86 737
12.88 820
12.9 806
12.92 775
12.94 786
12.96 780
12.98 750
13 764
13.02 792
13.04 806
13.06 788
13.08 866
13.1 808
13.12 791
13.14 786
13.16 826
13.18 812
13.2 796
13.22 840
13.24 850
13.26 909
13.28 823
13.3 811
13.32 784
13.34 816
13.36 815
13.38 775
13.4 811
13.42 833
13.44 880
13.46 837
13.48 855
13.5 858
13.52 890
13.54 843
13.56 809
13.58 887
13.6 893
13.62 805
13.64 823
13.66 794
13.68 803
13.7 846
13.72 859
13.74 845
13.76 856
13.78 827
13.8 839
13.82 844
13.84 840
13.86 869
13.88 834
13.9 838
13.92 804
13.94 821
13.96 846
13.98 904
14 886
14.02 878
14.04 831
14.06 874
14.08 879
14.1 883
14.12 898
14.14 868
14.16 897
14.18 890
14.2 909
14.22 900
14.24 927
14.26 919
14.28 913
14.3 909
14.32 941
14.34 973
14.36 952
14.38 978
14.4 867
14.42 917
14.44 939
14.46 915
14.48 891
14.5 837
14.52 946
14.54 922
14.56 1004
14.58 963
14.6 999
14.62 942
14.64 930
14.66 950
14.68 882
14.7 945
14.72 971
14.74 979
14.76 998
14.78 999
14.8 1017
14.82 944
14.84 1001
14.86 951
14.88 952
14.9 946
14.92 953
14.94 978
14.96 995
14.98 950
15 942
15.02 920
15.04 922
15.06 977
15.08 1033
15.1 987
15.12 971
15.14 978
15.16 975
15.18 969
15.2 1001
15.22 1030
15.24 1025
15.26 1045
15.28 982
15.3 987
15.32 978
15.34 1048
15.36 978
15.38 1030
15.4 1048
15.42 986
15.44 1021
15.46 1003
15.48 1002
15.5 1041
15.52 976
15.54 1015
15.56 1007
15.58 1041
15.6 1019
15.62 1016
15.64 977
15.66 1020
15.68 972
15.7 1041
15.72 1085
15.74 1024
15.76 1053
15.78 1045
15.8 1042
15.82 1114
15.84 1019
15.86 1071
15.88 1130
15.9 1053
15.92 1137
15.94 1094
15.96 1065
15.98 1097
16 1064
16.02 1138
16.04 1100
16.06 1127
16.08 1072
16.1 1107
16.12 1103
16.14 1102
16.16 1127
16.18 1095
16.2 1156
16.22 1091
16.24 1134
16.26 1117
16.28 1188
16.3 1164
16.32 1168
16.34 1147
16.36 1191
16.38 1186
16.4 1117
16.42 1185
16.44 1170
16.46 1141
16.48 1192
16.5 1198
16.52 1180
16.54 1218
16.56 1208
16.58 1153
16.6 1156
16.62 1192
16.64 1176
16.66 1243
16.68 1201
16.7 1188
16.72 1209
16.74 1229
16.76 1301
16.78 1297
16.8 1291
16.82 1218
16.84 1347
16.86 1348
16.88 1374
16.9 1443
16.92 1588
16.94 1635
16.96 1784
16.98 1761
17 1873
17.02 1829
17.04 1783
17.06 1669
17.08 1531
17.1 1446
17.12 1489
17.14 1414
17.16 1390
17.18 1352
17.2 1311
17.22 1268
17.24 1278
17.26 1334
17.28 1380
17.3 1303
17.32 1339
17.34 1348
17.36 1370
17.38 1322
17.4 1283
17.42 1321
17.44 1274
17.46 1327
17.48 1334
17.5 1392
17.52 1322
17.54 1408
17.56 1342
17.58 1266
17.6 1333
17.62 1375
17.64 1321
17.66 1394
17.68 1367
17.7 1347
17.72 1357
17.74 1334
17.76 1363
17.78 1380
17.8 1411
17.82 1339
17.84 1412
17.86 1396
17.88 1420
17.9 1391
17.92 1337
17.94 1408
17.96 1440
17.98 1459
18 1444
18.02 1414
18.04 1395
18.06 1380
18.08 1464
18.1 1476
18.12 1439
18.14 1392
18.16 1365
18.18 1418
18.2 1382
18.22 1435
18.24 1390
18.26 1442
18.28 1470
18.3 1468
18.32 1436
18.34 1465
18.36 1435
18.38 1477
18.4 1496
18.42 1463
18.44 1438
18.46 1505
18.48 1465
18.5 1467
18.52 1354
18.54 1523
18.56 1458
18.58 1491
18.6 1578
18.62 1501
18.64 1602
18.66 1531
18.68 1527
18.7 1524
18.72 1505
18.74 1561
18.76 1547
18.78 1555
18.8 1579
18.82 1548
18.84 1530
18.86 1592
18.88 1559
18.9 1585
18.92 1576
18.94 1533
18.96 1554
18.98 1523
19 1564
19.02 1602
19.04 1635
19.06 1649
19.08 1724
19.1 1686
19.12 1608
19.14 1588
19.16 1666
19.18 1659
19.2 1618
19.22 1617
19.24 1608
19.26 1583
19.28 1627
19.3 1610
19.32 1649
19.34 1709
19.36 1715
19.38 1707
19.4 1675
19.42 1768
19.44 1707
19.46 1776
19.48 1771
19.5 1800
19.52 1815
19.54 1784
19.56 1822
19.58 1738
19.6 1797
19.62 1711
19.64 1693
19.66 1609
19.68 1677
19.7 1662
19.72 1684
19.74 1759
19.76 1653
19.78 1599
19.8 1655
19.82 1732
19.84 1745
19.86 1747
19.88 1704
19.9 1711
19.92 1735
19.94 1622
19.96 1675
19.98 1737
20 1701