File: xrd-UiO-67/pxrddata/48-12.ASC
3 2237
3.02 2063
3.04 1878
3.06 1852
3.08 1631
3.1 1643
3.12 1562
3.14 1567
3.16 1488
3.18 1481
3.2 1527
3.22 1474
3.24 1529
3.26 1461
3.28 1419
3.3 1448
3.32 1346
3.34 1335
3.36 1361
3.38 1327
3.4 1388
3.42 1324
3.44 1352
3.46 1348
3.48 1335
3.5 1308
3.52 1260
3.54 1263
3.56 1205
3.58 1209
3.6 1249
3.62 1235
3.64 1221
3.66 1198
3.68 1184
3.7 1190
3.72 1208
3.74 1246
3.76 1174
3.78 1126
3.8 1144
3.82 1211
3.84 1174
3.86 1149
3.88 1093
3.9 1060
3.92 1096
3.94 1077
3.96 1060
3.98 1134
4 1115
4.02 1105
4.04 1065
4.06 1141
4.08 1133
4.1 1100
4.12 1096
4.14 1120
4.16 1081
4.18 1054
4.2 1018
4.22 1050
4.24 1127
4.26 1070
4.28 1060
4.3 1020
4.32 1078
4.34 1032
4.36 1023
4.38 1075
4.4 1012
4.42 1077
4.44 1026
4.46 1111
4.48 1051
4.5 1044
4.52 1070
4.54 1064
4.56 1057
4.58 1051
4.6 1114
4.62 1023
4.64 1050
4.66 1088
4.68 1055
4.7 1109
4.72 1063
4.74 1122
4.76 1116
4.78 1075
4.8 1126
4.82 1152
4.84 1167
4.86 1144
4.88 1197
4.9 1226
4.92 1226
4.94 1211
4.96 1253
4.98 1326
5 1336
5.02 1339
5.04 1393
5.06 1329
5.08 1481
5.1 1443
5.12 1535
5.14 1544
5.16 1684
5.18 1747
5.2 1880
5.22 1872
5.24 1956
5.26 2135
5.28 2204
5.3 2283
5.32 2589
5.34 2846
5.36 3217
5.38 3641
5.4 4073
5.42 3946
5.44 3334
5.46 2675
5.48 2395
5.5 2217
5.52 2141
5.54 2050
5.56 1978
5.58 1948
5.6 1947
5.62 1956
5.64 1837
5.66 1884
5.68 1888
5.7 1837
5.72 1825
5.74 1643
5.76 1564
5.78 1461
5.8 1406
5.82 1307
5.84 1194
5.86 1151
5.88 1060
5.9 1056
5.92 1012
5.94 940
5.96 920
5.98 912
6 918
6.02 887
6.04 828
6.06 903
6.08 841
6.1 860
6.12 836
6.14 789
6.16 781
6.18 771
6.2 772
6.22 806
6.24 715
6.26 760
6.28 754
6.3 770
6.32 778
6.34 785
6.36 799
6.38 746
6.4 780
6.42 793
6.44 788
6.46 827
6.48 721
6.5 747
6.52 752
6.54 814
6.56 779
6.58 797
6.6 818
6.62 787
6.64 773
6.66 793
6.68 823
6.7 825
6.72 784
6.74 751
6.76 753
6.78 744
6.8 749
6.82 744
6.84 760
6.86 722
6.88 734
6.9 743
6.92 732
6.94 673
6.96 633
6.98 731
7 721
7.02 675
7.04 656
7.06 658
7.08 666
7.1 668
7.12 659
7.14 651
7.16 672
7.18 675
7.2 714
7.22 663
7.24 662
7.26 637
7.28 647
7.3 701
7.32 613
7.34 664
7.36 687
7.38 665
7.4 631
7.42 655
7.44 654
7.46 634
7.48 663
7.5 605
7.52 676
7.54 641
7.56 657
7.58 669
7.6 692
7.62 664
7.64 631
7.66 671
7.68 700
7.7 645
7.72 634
7.74 686
7.76 664
7.78 680
7.8 712
7.82 659
7.84 649
7.86 689
7.88 701
7.9 674
7.92 646
7.94 661
7.96 688
7.98 698
8 694
8.02 609
8.04 687
8.06 645
8.08 670
8.1 700
8.12 698
8.14 678
8.16 631
8.18 636
8.2 633
8.22 641
8.24 638
8.26 638
8.28 651
8.3 635
8.32 650
8.34 662
8.36 661
8.38 646
8.4 628
8.42 646
8.44 706
8.46 680
8.48 644
8.5 629
8.52 682
8.54 673
8.56 630
8.58 658
8.6 634
8.62 659
8.64 649
8.66 655
8.68 672
8.7 681
8.72 661
8.74 644
8.76 639
8.78 732
8.8 668
8.82 661
8.84 669
8.86 690
8.88 687
8.9 677
8.92 713
8.94 708
8.96 737
8.98 701
9 762
9.02 744
9.04 794
9.06 786
9.08 791
9.1 874
9.12 919
9.14 897
9.16 983
9.18 894
9.2 1000
9.22 1090
9.24 1203
9.26 1345
9.28 1515
9.3 1602
9.32 1715
9.34 1553
9.36 1276
9.38 973
9.4 851
9.42 755
9.44 747
9.46 705
9.48 734
9.5 736
9.52 717
9.54 711
9.56 700
9.58 684
9.6 707
9.62 692
9.64 683
9.66 697
9.68 666
9.7 653
9.72 724
9.74 691
9.76 668
9.78 705
9.8 670
9.82 703
9.84 675
9.86 666
9.88 650
9.9 746
9.92 675
9.94 691
9.96 689
9.98 666
10 714
10.02 616
10.04 663
10.06 698
10.08 700
10.1 714
10.12 719
10.14 711
10.16 714
10.18 743
10.2 737
10.22 669
10.24 656
10.26 679
10.28 677
10.3 728
10.32 635
10.34 735
10.36 682
10.38 683
10.4 687
10.42 680
10.44 704
10.46 713
10.48 690
10.5 709
10.52 739
10.54 677
10.56 754
10.58 776
10.6 787
10.62 787
10.64 831
10.66 877
10.68 896
10.7 1028
10.72 1099
10.74 1116
10.76 1173
10.78 1098
10.8 1064
10.82 985
10.84 967
10.86 902
10.88 893
10.9 878
10.92 916
10.94 909
10.96 863
10.98 834
11 769
11.02 769
11.04 705
11.06 670
11.08 666
11.1 681
11.12 638
11.14 706
11.16 675
11.18 656
11.2 670
11.22 692
11.24 670
11.26 697
11.28 648
11.3 682
11.32 661
11.34 674
11.36 674
11.38 655
11.4 678
11.42 667
11.44 716
11.46 687
11.48 698
11.5 737
11.52 682
11.54 679
11.56 691
11.58 689
11.6 658
11.62 725
11.64 651
11.66 676
11.68 661
11.7 612
11.72 683
11.74 639
11.76 650
11.78 670
11.8 661
11.82 675
11.84 682
11.86 677
11.88 655
11.9 654
11.92 693
11.94 681
11.96 660
11.98 653
12 681
12.02 625
12.04 620
12.06 731
12.08 672
12.1 691
12.12 665
12.14 718
12.16 721
12.18 754
12.2 680
12.22 705
12.24 750
12.26 729
12.28 724
12.3 679
12.32 699
12.34 709
12.36 655
12.38 671
12.4 694
12.42 692
12.44 677
12.46 643
12.48 660
12.5 684
12.52 673
12.54 666
12.56 681
12.58 687
12.6 631
12.62 698
12.64 638
12.66 640
12.68 624
12.7 655
12.72 673
12.74 649
12.76 647
12.78 686
12.8 667
12.82 687
12.84 642
12.86 688
12.88 689
12.9 644
12.92 666
12.94 669
12.96 677
12.98 671
13 684
13.02 639
13.04 695
13.06 669
13.08 659
13.1 669
13.12 654
13.14 658
13.16 699
13.18 666
13.2 692
13.22 621
13.24 692
13.26 681
13.28 744
13.3 685
13.32 666
13.34 657
13.36 623
13.38 693
13.4 709
13.42 676
13.44 690
13.46 669
13.48 679
13.5 637
13.52 688
13.54 744
13.56 675
13.58 715
13.6 629
13.62 697
13.64 715
13.66 675
13.68 766
13.7 725
13.72 674
13.74 718
13.76 665
13.78 702
13.8 685
13.82 703
13.84 734
13.86 678
13.88 699
13.9 692
13.92 666
13.94 637
13.96 654
13.98 708
14 681
14.02 755
14.04 717
14.06 687
14.08 726
14.1 679
14.12 661
14.14 727
14.16 710
14.18 735
14.2 746
14.22 754
14.24 770
14.26 719
14.28 774
14.3 751
14.32 761
14.34 756
14.36 726
14.38 717
14.4 745
14.42 753
14.44 727
14.46 697
14.48 736
14.5 702
14.52 690
14.54 671
14.56 692
14.58 781
14.6 692
14.62 701
14.64 694
14.66 689
14.68 749
14.7 765
14.72 712
14.74 704
14.76 680
14.78 743
14.8 809
14.82 782
14.84 725
14.86 764
14.88 736
14.9 737
14.92 726
14.94 764
14.96 743
14.98 716
15 718
15.02 667
15.04 747
15.06 798
15.08 760
15.1 755
15.12 759
15.14 773
15.16 719
15.18 700
15.2 774
15.22 771
15.24 773
15.26 749
15.28 757
15.3 749
15.32 742
15.34 764
15.36 755
15.38 750
15.4 741
15.42 744
15.44 751
15.46 785
15.48 755
15.5 792
15.52 773
15.54 778
15.56 781
15.58 777
15.6 815
15.62 760
15.64 798
15.66 733
15.68 775
15.7 791
15.72 758
15.74 774
15.76 798
15.78 798
15.8 826
15.82 745
15.84 826
15.86 739
15.88 785
15.9 812
15.92 756
15.94 793
15.96 785
15.98 825
16 790
16.02 785
16.04 805
16.06 785
16.08 837
16.1 813
16.12 812
16.14 826
16.16 870
16.18 808
16.2 843
16.22 848
16.24 853
16.26 877
16.28 858
16.3 856
16.32 833
16.34 869
16.36 844
16.38 893
16.4 825
16.42 836
16.44 881
16.46 858
16.48 831
16.5 847
16.52 799
16.54 885
16.56 850
16.58 864
16.6 859
16.62 861
16.64 816
16.66 911
16.68 910
16.7 892
16.72 878
16.74 870
16.76 851
16.78 900
16.8 845
16.82 875
16.84 863
16.86 899
16.88 892
16.9 893
16.92 911
16.94 996
16.96 912
16.98 921
17 885
17.02 840
17.04 907
17.06 918
17.08 882
17.1 891
17.12 924
17.14 870
17.16 917
17.18 918
17.2 918
17.22 988
17.24 916
17.26 913
17.28 931
17.3 914
17.32 985
17.34 941
17.36 989
17.38 942
17.4 947
17.42 984
17.44 1005
17.46 1002
17.48 1014
17.5 1038
17.52 971
17.54 995
17.56 981
17.58 963
17.6 1024
17.62 983
17.64 992
17.66 948
17.68 953
17.7 963
17.72 988
17.74 971
17.76 998
17.78 1029
17.8 1000
17.82 969
17.84 1004
17.86 1023
17.88 993
17.9 1006
17.92 1013
17.94 1012
17.96 1065
17.98 1000
18 1038
18.02 991
18.04 1034
18.06 1036
18.08 984
18.1 991
18.12 1099
18.14 1052
18.16 1060
18.18 1035
18.2 1085
18.22 1038
18.24 1046
18.26 1040
18.28 1077
18.3 1097
18.32 1041
18.34 1090
18.36 1049
18.38 1071
18.4 1071
18.42 1031
18.44 1075
18.46 1106
18.48 1087
18.5 1107
18.52 991
18.54 1103
18.56 1142
18.58 1055
18.6 1117
18.62 1159
18.64 1149
18.66 1076
18.68 1155
18.7 1131
18.72 1111
18.74 1111
18.76 1166
18.78 1155
18.8 1094
18.82 1181
18.84 1163
18.86 1130
18.88 1172
18.9 1173
18.92 1143
18.94 1145
18.96 1179
18.98 1091
19 1163
19.02 1163
19.04 1307
19.06 1227
19.08 1260
19.1 1208
19.12 1210
19.14 1162
19.16 1168
19.18 1189
19.2 1157
19.22 1187
19.24 1210
19.26 1148
19.28 1178
19.3 1192
19.32 1254
19.34 1287
19.36 1364
19.38 1347
19.4 1404
19.42 1367
19.44 1363
19.46 1340
19.48 1333
19.5 1395
19.52 1304
19.54 1290
19.56 1310
19.58 1298
19.6 1279
19.62 1267
19.64 1257
19.66 1277
19.68 1240
19.7 1304
19.72 1272
19.74 1209
19.76 1258
19.78 1278
19.8 1201
19.82 1223
19.84 1221
19.86 1248
19.88 1216
19.9 1270
19.92 1233
19.94 1253
19.96 1277
19.98 1243
20 1224