File: xrd-UiO-67/pxrddata/5-11.ASC
3 2085
3.02 1950
3.04 1874
3.06 1747
3.08 1695
3.1 1601
3.12 1629
3.14 1628
3.16 1579
3.18 1491
3.2 1470
3.22 1475
3.24 1470
3.26 1485
3.28 1443
3.3 1404
3.32 1400
3.34 1391
3.36 1470
3.38 1365
3.4 1343
3.42 1310
3.44 1360
3.46 1353
3.48 1287
3.5 1254
3.52 1271
3.54 1294
3.56 1311
3.58 1274
3.6 1251
3.62 1177
3.64 1206
3.66 1147
3.68 1169
3.7 1196
3.72 1094
3.74 1155
3.76 1140
3.78 1156
3.8 1136
3.82 1111
3.84 1133
3.86 1096
3.88 1072
3.9 1090
3.92 1074
3.94 1077
3.96 1099
3.98 1101
4 1027
4.02 1019
4.04 1064
4.06 975
4.08 1054
4.1 1112
4.12 1069
4.14 1013
4.16 956
4.18 975
4.2 963
4.22 980
4.24 982
4.26 982
4.28 890
4.3 914
4.32 887
4.34 919
4.36 922
4.38 926
4.4 912
4.42 836
4.44 891
4.46 929
4.48 909
4.5 910
4.52 843
4.54 963
4.56 903
4.58 917
4.6 901
4.62 933
4.64 916
4.66 869
4.68 882
4.7 883
4.72 868
4.74 851
4.76 895
4.78 879
4.8 884
4.82 928
4.84 876
4.86 846
4.88 914
4.9 912
4.92 883
4.94 868
4.96 880
4.98 919
5 934
5.02 926
5.04 1005
5.06 937
5.08 943
5.1 971
5.12 968
5.14 1009
5.16 989
5.18 1054
5.2 1065
5.22 1104
5.24 1069
5.26 1122
5.28 1124
5.3 1114
5.32 1148
5.34 1139
5.36 1178
5.38 1259
5.4 1260
5.42 1296
5.44 1342
5.46 1395
5.48 1523
5.5 1582
5.52 1603
5.54 1738
5.56 1764
5.58 1950
5.6 2082
5.62 2201
5.64 2333
5.66 2493
5.68 2749
5.7 2963
5.72 3528
5.74 4092
5.76 4846
5.78 5766
5.8 5907
5.82 4764
5.84 3242
5.86 1915
5.88 1260
5.9 1100
5.92 1094
5.94 983
5.96 1031
5.98 944
6 930
6.02 1000
6.04 1028
6.06 983
6.08 992
6.1 994
6.12 952
6.14 1059
6.16 1042
6.18 1025
6.2 1049
6.22 1014
6.24 1023
6.26 1052
6.28 1115
6.3 1137
6.32 1168
6.34 1189
6.36 1197
6.38 1205
6.4 1201
6.42 1330
6.44 1381
6.46 1417
6.48 1516
6.5 1605
6.52 1729
6.54 1763
6.56 1952
6.58 2193
6.6 2415
6.62 2729
6.64 3171
6.66 3647
6.68 3768
6.7 3239
6.72 2257
6.74 1484
6.76 1120
6.78 1021
6.8 921
6.82 995
6.84 982
6.86 890
6.88 871
6.9 919
6.92 907
6.94 949
6.96 900
6.98 869
7 885
7.02 965
7.04 936
7.06 953
7.08 989
7.1 933
7.12 937
7.14 951
7.16 969
7.18 972
7.2 974
7.22 990
7.24 1042
7.26 1039
7.28 999
7.3 1040
7.32 1049
7.34 1033
7.36 1035
7.38 1114
7.4 1098
7.42 1168
7.44 1207
7.46 1258
7.48 1128
7.5 1125
7.52 1012
7.54 989
7.56 919
7.58 889
7.6 884
7.62 898
7.64 904
7.66 868
7.68 857
7.7 839
7.72 857
7.74 897
7.76 862
7.78 922
7.8 865
7.82 844
7.84 841
7.86 895
7.88 884
7.9 858
7.92 867
7.94 832
7.96 816
7.98 932
8 817
8.02 833
8.04 826
8.06 835
8.08 837
8.1 814
8.12 794
8.14 851
8.16 850
8.18 847
8.2 829
8.22 826
8.24 870
8.26 790
8.28 791
8.3 833
8.32 836
8.34 871
8.36 855
8.38 871
8.4 891
8.42 849
8.44 863
8.46 886
8.48 852
8.5 911
8.52 921
8.54 935
8.56 968
8.58 974
8.6 974
8.62 956
8.64 978
8.66 887
8.68 880
8.7 914
8.72 858
8.74 828
8.76 854
8.78 809
8.8 833
8.82 832
8.84 832
8.86 880
8.88 928
8.9 871
8.92 965
8.94 901
8.96 898
8.98 900
9 1005
9.02 927
9.04 897
9.06 974
9.08 978
9.1 992
9.12 1033
9.14 1045
9.16 1113
9.18 1192
9.2 1243
9.22 1240
9.24 1291
9.26 1369
9.28 1541
9.3 1642
9.32 1780
9.34 2052
9.36 2520
9.38 2893
9.4 3117
9.42 2774
9.44 2114
9.46 1555
9.48 1161
9.5 949
9.52 956
9.54 972
9.56 866
9.58 889
9.6 844
9.62 895
9.64 879
9.66 840
9.68 907
9.7 844
9.72 841
9.74 873
9.76 904
9.78 880
9.8 847
9.82 882
9.84 825
9.86 828
9.88 867
9.9 829
9.92 842
9.94 849
9.96 886
9.98 865
10 882
10.02 900
10.04 842
10.06 822
10.08 867
10.1 841
10.12 834
10.14 882
10.16 854
10.18 793
10.2 833
10.22 827
10.24 834
10.26 873
10.28 920
10.3 874
10.32 846
10.34 841
10.36 871
10.38 888
10.4 905
10.42 830
10.44 857
10.46 889
10.48 876
10.5 905
10.52 871
10.54 934
10.56 874
10.58 886
10.6 892
10.62 946
10.64 950
10.66 963
10.68 986
10.7 991
10.72 1051
10.74 1036
10.76 1063
10.78 1195
10.8 1190
10.82 1262
10.84 1295
10.86 1364
10.88 1458
10.9 1550
10.92 1688
10.94 1902
10.96 2332
10.98 2661
11 3037
11.02 2887
11.04 2529
11.06 1909
11.08 1377
11.1 1145
11.12 1036
11.14 954
11.16 997
11.18 983
11.2 1030
11.22 1018
11.24 1031
11.26 1022
11.28 1074
11.3 1077
11.32 1064
11.34 1110
11.36 1163
11.38 1211
11.4 1254
11.42 1390
11.44 1468
11.46 1808
11.48 1921
11.5 2048
11.52 1753
11.54 1510
11.56 1213
11.58 1062
11.6 1024
11.62 952
11.64 922
11.66 958
11.68 946
11.7 930
11.72 987
11.74 886
11.76 885
11.78 893
11.8 919
11.82 938
11.84 972
11.86 886
11.88 903
11.9 930
11.92 956
11.94 971
11.96 934
11.98 949
12 966
12.02 954
12.04 988
12.06 1009
12.08 976
12.1 967
12.12 975
12.14 986
12.16 1003
12.18 989
12.2 1049
12.22 994
12.24 968
12.26 968
12.28 948
12.3 912
12.32 898
12.34 941
12.36 968
12.38 901
12.4 961
12.42 945
12.44 986
12.46 943
12.48 958
12.5 977
12.52 934
12.54 982
12.56 977
12.58 967
12.6 955
12.62 961
12.64 955
12.66 932
12.68 933
12.7 959
12.72 925
12.74 948
12.76 1002
12.78 979
12.8 978
12.82 944
12.84 972
12.86 978
12.88 969
12.9 966
12.92 981
12.94 1058
12.96 947
12.98 1017
13 1034
13.02 1023
13.04 1014
13.06 1006
13.08 1012
13.1 1005
13.12 1095
13.14 1131
13.16 1094
13.18 1130
13.2 1174
13.22 1225
13.24 1341
13.26 1382
13.28 1426
13.3 1234
13.32 1208
13.34 1066
13.36 1071
13.38 1024
13.4 1029
13.42 1002
13.44 1066
13.46 1070
13.48 1010
13.5 1028
13.52 1044
13.54 1097
13.56 1063
13.58 1040
13.6 998
13.62 1073
13.64 1009
13.66 1047
13.68 1068
13.7 1118
13.72 1105
13.74 1090
13.76 1035
13.78 1064
13.8 973
13.82 1042
13.84 1067
13.86 1179
13.88 1182
13.9 1102
13.92 1104
13.94 1100
13.96 1088
13.98 1098
14 1065
14.02 1084
14.04 1080
14.06 1139
14.08 1063
14.1 1147
14.12 1120
14.14 1123
14.16 1099
14.18 1070
14.2 1133
14.22 1113
14.24 1150
14.26 1200
14.28 1203
14.3 1152
14.32 1167
14.34 1196
14.36 1244
14.38 1284
14.4 1330
14.42 1435
14.44 1453
14.46 1383
14.48 1367
14.5 1331
14.52 1262
14.54 1186
14.56 1128
14.58 1145
14.6 1148
14.62 1130
14.64 1131
14.66 1247
14.68 1209
14.7 1178
14.72 1187
14.74 1177
14.76 1172
14.78 1203
14.8 1207
14.82 1237
14.84 1193
14.86 1214
14.88 1268
14.9 1194
14.92 1176
14.94 1211
14.96 1196
14.98 1166
15 1126
15.02 1202
15.04 1168
15.06 1230
15.08 1170
15.1 1203
15.12 1258
15.14 1204
15.16 1265
15.18 1236
15.2 1173
15.22 1219
15.24 1164
15.26 1223
15.28 1229
15.3 1199
15.32 1209
15.34 1229
15.36 1271
15.38 1285
15.4 1257
15.42 1291
15.44 1356
15.46 1226
15.48 1232
15.5 1231
15.52 1340
15.54 1280
15.56 1194
15.58 1296
15.6 1281
15.62 1253
15.64 1287
15.66 1262
15.68 1307
15.7 1297
15.72 1316
15.74 1314
15.76 1301
15.78 1293
15.8 1346
15.82 1335
15.84 1323
15.86 1356
15.88 1368
15.9 1272
15.92 1343
15.94 1313
15.96 1296
15.98 1312
16 1313
16.02 1320
16.04 1417
16.06 1412
16.08 1341
16.1 1398
16.12 1373
16.14 1430
16.16 1367
16.18 1371
16.2 1338
16.22 1398
16.24 1400
16.26 1353
16.28 1366
16.3 1361
16.32 1436
16.34 1428
16.36 1367
16.38 1458
16.4 1329
16.42 1395
16.44 1428
16.46 1399
16.48 1424
16.5 1408
16.52 1463
16.54 1432
16.56 1462
16.58 1503
16.6 1507
16.62 1415
16.64 1370
16.66 1505
16.68 1484
16.7 1490
16.72 1511
16.74 1471
16.76 1488
16.78 1558
16.8 1499
16.82 1466
16.84 1460
16.86 1470
16.88 1475
16.9 1487
16.92 1536
16.94 1580
16.96 1492
16.98 1478
17 1626
17.02 1519
17.04 1536
17.06 1617
17.08 1648
17.1 1648
17.12 1685
17.14 1715
17.16 1675
17.18 1798
17.2 1784
17.22 1892
17.24 1863
17.26 1950
17.28 1786
17.3 1697
17.32 1585
17.34 1654
17.36 1567
17.38 1596
17.4 1607
17.42 1646
17.44 1696
17.46 1667
17.48 1702
17.5 1696
17.52 1633
17.54 1695
17.56 1615
17.58 1620
17.6 1657
17.62 1650
17.64 1724
17.66 1688
17.68 1674
17.7 1668
17.72 1661
17.74 1662
17.76 1639
17.78 1730
17.8 1790
17.82 1728
17.84 1697
17.86 1736
17.88 1782
17.9 1653
17.92 1763
17.94 1833
17.96 1797
17.98 1748
18 1765
18.02 1863
18.04 1810
18.06 1758
18.08 1779
18.1 1769
18.12 1752
18.14 1810
18.16 1775
18.18 1814
18.2 1779
18.22 1796
18.24 1860
18.26 1781
18.28 1869
18.3 1884
18.32 1804
18.34 1876
18.36 1822
18.38 1840
18.4 1880
18.42 1845
18.44 1762
18.46 1921
18.48 1835
18.5 1911
18.52 1984
18.54 1856
18.56 1925
18.58 1936
18.6 1828
18.62 1943
18.64 1889
18.66 1925
18.68 1932
18.7 1823
18.72 1937
18.74 1902
18.76 1986
18.78 1875
18.8 1890
18.82 1942
18.84 1847
18.86 1948
18.88 2005
18.9 2047
18.92 1932
18.94 1930
18.96 1897
18.98 1999
19 1956
19.02 1952
19.04 1992
19.06 1950
19.08 2025
19.1 2003
19.12 2044
19.14 2126
19.16 1893
19.18 1996
19.2 2103
19.22 2007
19.24 2041
19.26 2102
19.28 1940
19.3 2038
19.32 2043
19.34 2084
19.36 2082
19.38 2044
19.4 2179
19.42 2122
19.44 2075
19.46 2088
19.48 2177
19.5 2237
19.52 2270
19.54 2365
19.56 2533
19.58 2644
19.6 2779
19.62 2905
19.64 2954
19.66 2835
19.68 2649
19.7 2437
19.72 2364
19.74 2356
19.76 2342
19.78 2334
19.8 2504
19.82 2561
19.84 2786
19.86 2938
19.88 3295
19.9 3419
19.92 3279
19.94 3108
19.96 2828
19.98 2556
20 2288
20.02 2230
20.04 2105
20.06 2132
20.08 2233
20.1 2210
20.12 2251
20.14 2216
20.16 2184
20.18 2202
20.2 2181
20.22 2140
20.24 2196
20.26 2242
20.28 2221
20.3 2133
20.32 2119
20.34 2184
20.36 2172
20.38 2098
20.4 2219
20.42 2179
20.44 2264
20.46 2260
20.48 2231
20.5 2201
20.52 2155
20.54 2202
20.56 2218
20.58 2145
20.6 2120
20.62 2153
20.64 2227
20.66 2145
20.68 2152
20.7 2182
20.72 2096
20.74 2149
20.76 2183
20.78 2114
20.8 2179
20.82 2124
20.84 2189
20.86 2211
20.88 2128
20.9 2191
20.92 2183
20.94 2129
20.96 2212
20.98 2253
21 2142
21.02 2224
21.04 2220
21.06 2186
21.08 2197
21.1 2207
21.12 2167
21.14 2135
21.16 2108
21.18 2249
21.2 2226
21.22 2182
21.24 2109
21.26 2091
21.28 2166
21.3 2185
21.32 2171
21.34 2203
21.36 2163
21.38 2110
21.4 2213
21.42 2146
21.44 2135
21.46 2334
21.48 2126
21.5 2184
21.52 2117
21.54 2119
21.56 2180
21.58 2195
21.6 2138
21.62 2221
21.64 2129
21.66 2184
21.68 2220
21.7 2268
21.72 2392
21.74 2399
21.76 2539
21.78 2491
21.8 2461
21.82 2326
21.84 2261
21.86 2261
21.88 2168
21.9 2118
21.92 2184
21.94 2121
21.96 2134
21.98 2112
22 2166
22.02 2072
22.04 2145
22.06 2124
22.08 2131
22.1 2157
22.12 2148
22.14 2077
22.16 2135
22.18 2084
22.2 2116
22.22 2093
22.24 2167
22.26 2101
22.28 2046
22.3 2096
22.32 2047
22.34 2034
22.36 2103
22.38 2156
22.4 2083
22.42 1980
22.44 2035
22.46 2103
22.48 2066
22.5 2062
22.52 1962
22.54 2035
22.56 2053
22.58 2046
22.6 1986
22.62 1986
22.64 1974
22.66 2028
22.68 2017
22.7 1943
22.72 2068
22.74 2017
22.76 2013
22.78 2002
22.8 1987
22.82 1942
22.84 1946
22.86 1983
22.88 1998
22.9 1987
22.92 1944
22.94 2011
22.96 2142
22.98 2092
23 2057
23.02 2086
23.04 2067
23.06 2050
23.08 2048
23.1 1983
23.12 2014
23.14 1913
23.16 1829
23.18 1913
23.2 1848
23.22 1931
23.24 1848
23.26 1874
23.28 1961
23.3 1893
23.32 1865
23.34 1883
23.36 1877
23.38 1797
23.4 1928
23.42 1840
23.44 1903
23.46 1929
23.48 1844
23.5 1963
23.52 1842
23.54 1955
23.56 1914
23.58 1891
23.6 2027
23.62 2041
23.64 2133
23.66 2288
23.68 2527
23.7 2758
23.72 2734
23.74 2716
23.76 2593
23.78 2316
23.8 2207
23.82 1987
23.84 1883
23.86 1879
23.88 1885
23.9 1856
23.92 1938
23.94 1993
23.96 2001
23.98 1905
24 1931
24.02 1886
24.04 1866
24.06 1850
24.08 1813
24.1 1757
24.12 1727
24.14 1750
24.16 1771
24.18 1764
24.2 1709
24.22 1651
24.24 1760
24.26 1735
24.28 1720
24.3 1607
24.32 1650
24.34 1725
24.36 1706
24.38 1751
24.4 1712
24.42 1689
24.44 1732
24.46 1721
24.48 1616
24.5 1694
24.52 1698
24.54 1657
24.56 1720
24.58 1646
24.6 1674
24.62 1704
24.64 1679
24.66 1660
24.68 1712
24.7 1674
24.72 1715
24.74 1727
24.76 1794
24.78 1842
24.8 1847
24.82 2086
24.84 2081
24.86 2302
24.88 2264
24.9 2132
24.92 2010
24.94 1886
24.96 1864
24.98 1677
25 1668
25.02 1606
25.04 1652
25.06 1566
25.08 1618
25.1 1553
25.12 1642
25.14 1621
25.16 1631
25.18 1575
25.2 1561
25.22 1563
25.24 1578
25.26 1614
25.28 1582
25.3 1628
25.32 1604
25.34 1620
25.36 1707
25.38 1724
25.4 1681
25.42 1771
25.44 1786
25.46 1910
25.48 2078
25.5 2333
25.52 2527
25.54 2633
25.56 2435
25.58 2255
25.6 2113
25.62 1894
25.64 1860
25.66 1638
25.68 1548
25.7 1499
25.72 1584
25.74 1646
25.76 1633
25.78 1618
25.8 1656
25.82 1604
25.84 1546
25.86 1548
25.88 1553
25.9 1521
25.92 1496
25.94 1489
25.96 1561
25.98 1520
26 1516
26.02 1490
26.04 1449
26.06 1412
26.08 1422
26.1 1452
26.12 1435
26.14 1464
26.16 1507
26.18 1487
26.2 1393
26.22 1467
26.24 1420
26.26 1399
26.28 1481
26.3 1418
26.32 1427
26.34 1406
26.36 1455
26.38 1394
26.4 1403
26.42 1398
26.44 1494
26.46 1476
26.48 1441
26.5 1497
26.52 1623
26.54 1583
26.56 1681
26.58 1853
26.6 2036
26.62 2054
26.64 1847
26.66 1820
26.68 1665
26.7 1545
26.72 1549
26.74 1427
26.76 1381
26.78 1381
26.8 1367
26.82 1366
26.84 1395
26.86 1395
26.88 1378
26.9 1307
26.92 1398
26.94 1277
26.96 1381
26.98 1382
27 1367
27.02 1354
27.04 1309
27.06 1306
27.08 1360
27.1 1275
27.12 1413
27.14 1343
27.16 1384
27.18 1345
27.2 1377
27.22 1276
27.24 1394
27.26 1338
27.28 1439
27.3 1394
27.32 1485
27.34 1455
27.36 1567
27.38 1718
27.4 1807
27.42 1937
27.44 2105
27.46 2016
27.48 1870
27.5 1741
27.52 1653
27.54 1491
27.56 1413
27.58 1378
27.6 1374
27.62 1299
27.64 1372
27.66 1339
27.68 1275
27.7 1271
27.72 1296
27.74 1343
27.76 1232
27.78 1226
27.8 1249
27.82 1289
27.84 1307
27.86 1253
27.88 1253
27.9 1223
27.92 1259
27.94 1268
27.96 1276
27.98 1270
28 1205
28.02 1234
28.04 1265
28.06 1307
28.08 1261
28.1 1267
28.12 1340
28.14 1362
28.16 1345
28.18 1448
28.2 1342
28.22 1513
28.24 1508
28.26 1502
28.28 1498
28.3 1366
28.32 1424
28.34 1361
28.36 1283
28.38 1238
28.4 1264
28.42 1312
28.44 1260
28.46 1236
28.48 1287
28.5 1245
28.52 1267
28.54 1231
28.56 1217
28.58 1225
28.6 1230
28.62 1215
28.64 1240
28.66 1277
28.68 1265
28.7 1239
28.72 1333
28.74 1358
28.76 1368
28.78 1483
28.8 1598
28.82 1731
28.84 1792
28.86 1734
28.88 1662
28.9 1571
28.92 1598
28.94 1471
28.96 1470
28.98 1447
29 1576
29.02 1635
29.04 1823
29.06 1684
29.08 1645
29.1 1489
29.12 1365
29.14 1347
29.16 1262
29.18 1210
29.2 1197
29.22 1190
29.24 1161
29.26 1128
29.28 1088
29.3 1177
29.32 1150
29.34 1210
29.36 1151
29.38 1161
29.4 1159
29.42 1213
29.44 1154
29.46 1164
29.48 1138
29.5 1131
29.52 1179
29.54 1137
29.56 1076
29.58 1140
29.6 1162
29.62 1117
29.64 1113
29.66 1152
29.68 1145
29.7 1112
29.72 1145
29.74 1137
29.76 1122
29.78 1181
29.8 1112
29.82 1193
29.84 1131
29.86 1171
29.88 1118
29.9 1148
29.92 1168
29.94 1131
29.96 1092
29.98 1111
30 1140