File: xrd-UiO-67/pxrddata/5-12.ASC
3 1849
3.02 1786
3.04 1641
3.06 1467
3.08 1544
3.1 1454
3.12 1416
3.14 1337
3.16 1372
3.18 1379
3.2 1309
3.22 1330
3.24 1256
3.26 1338
3.28 1263
3.3 1243
3.32 1250
3.34 1236
3.36 1246
3.38 1178
3.4 1208
3.42 1179
3.44 1205
3.46 1200
3.48 1116
3.5 1154
3.52 1150
3.54 1150
3.56 1065
3.58 1084
3.6 1093
3.62 1030
3.64 1075
3.66 1040
3.68 1068
3.7 1103
3.72 1091
3.74 1066
3.76 1025
3.78 1006
3.8 997
3.82 981
3.84 965
3.86 979
3.88 1051
3.9 925
3.92 967
3.94 954
3.96 924
3.98 960
4 961
4.02 983
4.04 908
4.06 885
4.08 844
4.1 867
4.12 899
4.14 868
4.16 892
4.18 921
4.2 837
4.22 883
4.24 824
4.26 828
4.28 819
4.3 822
4.32 816
4.34 802
4.36 850
4.38 809
4.4 812
4.42 828
4.44 807
4.46 820
4.48 771
4.5 749
4.52 812
4.54 792
4.56 751
4.58 771
4.6 731
4.62 766
4.64 723
4.66 724
4.68 719
4.7 765
4.72 717
4.74 697
4.76 742
4.78 709
4.8 665
4.82 744
4.84 722
4.86 735
4.88 748
4.9 744
4.92 728
4.94 693
4.96 705
4.98 718
5 722
5.02 745
5.04 755
5.06 716
5.08 739
5.1 748
5.12 738
5.14 736
5.16 734
5.18 722
5.2 760
5.22 728
5.24 752
5.26 782
5.28 786
5.3 722
5.32 728
5.34 785
5.36 816
5.38 766
5.4 816
5.42 818
5.44 797
5.46 865
5.48 834
5.5 855
5.52 850
5.54 877
5.56 852
5.58 922
5.6 908
5.62 981
5.64 1044
5.66 1047
5.68 1058
5.7 1147
5.72 1153
5.74 1275
5.76 1355
5.78 1503
5.8 1617
5.82 1690
5.84 1565
5.86 1395
5.88 1056
5.9 800
5.92 736
5.94 741
5.96 734
5.98 775
6 774
6.02 746
6.04 756
6.06 753
6.08 723
6.1 772
6.12 754
6.14 737
6.16 763
6.18 716
6.2 683
6.22 772
6.24 764
6.26 750
6.28 787
6.3 772
6.32 779
6.34 819
6.36 741
6.38 815
6.4 748
6.42 803
6.44 837
6.46 807
6.48 839
6.5 847
6.52 856
6.54 913
6.56 916
6.58 965
6.6 980
6.62 1065
6.64 1145
6.66 1240
6.68 1345
6.7 1355
6.72 1220
6.74 1080
6.76 984
6.78 809
6.8 742
6.82 744
6.84 751
6.86 746
6.88 810
6.9 767
6.92 734
6.94 748
6.96 775
6.98 792
7 746
7.02 760
7.04 777
7.06 784
7.08 780
7.1 788
7.12 815
7.14 773
7.16 805
7.18 823
7.2 818
7.22 830
7.24 820
7.26 892
7.28 943
7.3 944
7.32 924
7.34 995
7.36 994
7.38 1079
7.4 1098
7.42 1240
7.44 1366
7.46 1481
7.48 1488
7.5 1441
7.52 1294
7.54 1103
7.56 887
7.58 748
7.6 770
7.62 722
7.64 723
7.66 767
7.68 746
7.7 714
7.72 757
7.74 718
7.76 695
7.78 768
7.8 693
7.82 750
7.84 724
7.86 698
7.88 748
7.9 685
7.92 703
7.94 685
7.96 701
7.98 672
8 736
8.02 720
8.04 784
8.06 765
8.08 732
8.1 710
8.12 716
8.14 729
8.16 761
8.18 695
8.2 759
8.22 740
8.24 733
8.26 748
8.28 748
8.3 785
8.32 757
8.34 759
8.36 810
8.38 813
8.4 809
8.42 849
8.44 830
8.46 797
8.48 830
8.5 891
8.52 873
8.54 944
8.56 1013
8.58 1079
8.6 1090
8.62 1107
8.64 1116
8.66 1000
8.68 858
8.7 829
8.72 759
8.74 722
8.76 753
8.78 727
8.8 735
8.82 740
8.84 731
8.86 721
8.88 696
8.9 709
8.92 732
8.94 695
8.96 735
8.98 786
9 713
9.02 733
9.04 707
9.06 767
9.08 811
9.1 774
9.12 801
9.14 760
9.16 805
9.18 847
9.2 776
9.22 874
9.24 899
9.26 872
9.28 920
9.3 1021
9.32 1016
9.34 1066
9.36 1134
9.38 1332
9.4 1377
9.42 1422
9.44 1279
9.46 1180
9.48 936
9.5 848
9.52 797
9.54 725
9.56 767
9.58 731
9.6 702
9.62 747
9.64 702
9.66 746
9.68 713
9.7 732
9.72 762
9.74 688
9.76 779
9.78 676
9.8 725
9.82 746
9.84 686
9.86 691
9.88 711
9.9 718
9.92 740
9.94 715
9.96 750
9.98 745
10 747
10.02 711
10.04 761
10.06 715
10.08 710
10.1 761
10.12 792
10.14 691
10.16 741
10.18 715
10.2 746
10.22 762
10.24 710
10.26 725
10.28 724
10.3 754
10.32 746
10.34 789
10.36 772
10.38 724
10.4 738
10.42 729
10.44 791
10.46 765
10.48 789
10.5 777
10.52 780
10.54 747
10.56 769
10.58 752
10.6 754
10.62 784
10.64 739
10.66 797
10.68 792
10.7 862
10.72 773
10.74 859
10.76 838
10.78 855
10.8 854
10.82 886
10.84 903
10.86 907
10.88 953
10.9 963
10.92 1049
10.94 1125
10.96 1296
10.98 1458
11 1435
11.02 1559
11.04 1514
11.06 1364
11.08 1156
11.1 1006
11.12 909
11.14 789
11.16 874
11.18 830
11.2 810
11.22 812
11.24 811
11.26 812
11.28 807
11.3 820
11.32 863
11.34 890
11.36 918
11.38 872
11.4 920
11.42 927
11.44 988
11.46 1107
11.48 1131
11.5 1168
11.52 1280
11.54 1188
11.56 1017
11.58 931
11.6 900
11.62 813
11.64 813
11.66 855
11.68 838
11.7 807
11.72 829
11.74 832
11.76 819
11.78 850
11.8 835
11.82 818
11.84 827
11.86 812
11.88 824
11.9 839
11.92 833
11.94 852
11.96 888
11.98 887
12 834
12.02 882
12.04 891
12.06 924
12.08 983
12.1 983
12.12 1023
12.14 1011
12.16 963
12.18 970
12.2 954
12.22 925
12.24 895
12.26 869
12.28 808
12.3 827
12.32 841
12.34 801
12.36 869
12.38 865
12.4 837
12.42 857
12.44 818
12.46 846
12.48 889
12.5 807
12.52 808
12.54 901
12.56 870
12.58 822
12.6 878
12.62 836
12.64 873
12.66 864
12.68 938
12.7 919
12.72 835
12.74 939
12.76 922
12.78 851
12.8 898
12.82 856
12.84 872
12.86 866
12.88 944
12.9 856
12.92 928
12.94 891
12.96 897
12.98 904
13 907
13.02 884
13.04 904
13.06 955
13.08 899
13.1 941
13.12 931
13.14 992
13.16 907
13.18 950
13.2 1044
13.22 1071
13.24 1109
13.26 1047
13.28 1137
13.3 1064
13.32 1034
13.34 957
13.36 969
13.38 977
13.4 985
13.42 929
13.44 942
13.46 907
13.48 907
13.5 969
13.52 929
13.54 956
13.56 991
13.58 960
13.6 975
13.62 937
13.64 1010
13.66 942
13.68 928
13.7 960
13.72 989
13.74 988
13.76 989
13.78 990
13.8 1003
13.82 953
13.84 980
13.86 1039
13.88 943
13.9 1013
13.92 1038
13.94 1053
13.96 1011
13.98 1034
14 1021
14.02 1009
14.04 1051
14.06 1012
14.08 1078
14.1 1064
14.12 1041
14.14 1134
14.16 1115
14.18 1135
14.2 1128
14.22 1159
14.24 1189
14.26 1249
14.28 1090
14.3 1108
14.32 1102
14.34 1095
14.36 1106
14.38 1174
14.4 1126
14.42 1200
14.44 1225
14.46 1228
14.48 1255
14.5 1228
14.52 1112
14.54 1163
14.56 1163
14.58 1190
14.6 1109
14.62 1115
14.64 1095
14.66 1155
14.68 1140
14.7 1159
14.72 1114
14.74 1205
14.76 1159
14.78 1145
14.8 1214
14.82 1132
14.84 1236
14.86 1222
14.88 1233
14.9 1261
14.92 1180
14.94 1189
14.96 1155
14.98 1175
15 1154
15.02 1180
15.04 1141
15.06 1178
15.08 1140
15.1 1181
15.12 1155
15.14 1135
15.16 1155
15.18 1218
15.2 1206
15.22 1222
15.24 1204
15.26 1244
15.28 1220
15.3 1225
15.32 1229
15.34 1224
15.36 1204
15.38 1321
15.4 1213
15.42 1267
15.44 1198
15.46 1232
15.48 1255
15.5 1247
15.52 1322
15.54 1238
15.56 1323
15.58 1337
15.6 1305
15.62 1307
15.64 1333
15.66 1283
15.68 1350
15.7 1315
15.72 1257
15.74 1248
15.76 1378
15.78 1365
15.8 1382
15.82 1345
15.84 1327
15.86 1385
15.88 1297
15.9 1322
15.92 1339
15.94 1368
15.96 1389
15.98 1421
16 1378
16.02 1362
16.04 1382
16.06 1405
16.08 1366
16.1 1394
16.12 1342
16.14 1399
16.16 1477
16.18 1454
16.2 1400
16.22 1426
16.24 1469
16.26 1425
16.28 1499
16.3 1471
16.32 1440
16.34 1425
16.36 1529
16.38 1491
16.4 1526
16.42 1480
16.44 1431
16.46 1480
16.48 1482
16.5 1458
16.52 1484
16.54 1440
16.56 1505
16.58 1544
16.6 1551
16.62 1559
16.64 1497
16.66 1507
16.68 1507
16.7 1539
16.72 1534
16.74 1554
16.76 1586
16.78 1617
16.8 1688
16.82 1633
16.84 1536
16.86 1569
16.88 1546
16.9 1533
16.92 1646
16.94 1642
16.96 1583
16.98 1680
17 1602
17.02 1574
17.04 1738
17.06 1688
17.08 1697
17.1 1750
17.12 1817
17.14 1842
17.16 1892
17.18 1896
17.2 1886
17.22 1877
17.24 1953
17.26 1880
17.28 1846
17.3 1781
17.32 1774
17.34 1756
17.36 1729
17.38 1774
17.4 1765
17.42 1676
17.44 1730
17.46 1734
17.48 1720
17.5 1716
17.52 1768
17.54 1727
17.56 1728
17.58 1733
17.6 1703
17.62 1776
17.64 1788
17.66 1809
17.68 1822
17.7 1776
17.72 1764
17.74 1838
17.76 1760
17.78 1791
17.8 1739
17.82 1867
17.84 1875
17.86 1888
17.88 1831
17.9 1857
17.92 1942
17.94 1910
17.96 1863
17.98 1840
18 1872
18.02 1889
18.04 1932
18.06 1942
18.08 1864
18.1 1913
18.12 1865
18.14 1948
18.16 1918
18.18 1869
18.2 1880
18.22 1954
18.24 1928
18.26 1970
18.28 1953
18.3 2010
18.32 1980
18.34 1927
18.36 1935
18.38 1951
18.4 1961
18.42 2014
18.44 1992
18.46 1993
18.48 2069
18.5 2012
18.52 2021
18.54 2011
18.56 2011
18.58 1994
18.6 2062
18.62 2064
18.64 2053
18.66 2113
18.68 2238
18.7 2206
18.72 2081
18.74 2206
18.76 2167
18.78 2127
18.8 2104
18.82 2183
18.84 2062
18.86 2153
18.88 2158
18.9 2093
18.92 2135
18.94 2086
18.96 2063
18.98 2110
19 2194
19.02 2164
19.04 2067
19.06 2101
19.08 2195
19.1 2111
19.12 2202
19.14 2140
19.16 2169
19.18 2258
19.2 2210
19.22 2243
19.24 2247
19.26 2286
19.28 2192
19.3 2175
19.32 2238
19.34 2169
19.36 2184
19.38 2293
19.4 2300
19.42 2282
19.44 2271
19.46 2309
19.48 2315
19.5 2339
19.52 2408
19.54 2331
19.56 2510
19.58 2501
19.6 2605
19.62 2796
19.64 2855
19.66 2758
19.68 2666
19.7 2597
19.72 2475
19.74 2486
19.76 2361
19.78 2391
19.8 2472
19.82 2467
19.84 2566
19.86 2750
19.88 2812
19.9 2975
19.92 3115
19.94 3058
19.96 2907
19.98 2819
20 2531
20.02 2509
20.04 2450
20.06 2356
20.08 2267
20.1 2273
20.12 2357
20.14 2333
20.16 2286
20.18 2377
20.2 2357
20.22 2236
20.24 2346
20.26 2357
20.28 2349
20.3 2373
20.32 2347
20.34 2339
20.36 2349
20.38 2336
20.4 2312
20.42 2423
20.44 2315
20.46 2344
20.48 2264
20.5 2247
20.52 2340
20.54 2305
20.56 2241
20.58 2317
20.6 2265
20.62 2316
20.64 2380
20.66 2371
20.68 2334
20.7 2306
20.72 2355
20.74 2321
20.76 2370
20.78 2418
20.8 2404
20.82 2306
20.84 2419
20.86 2475
20.88 2382
20.9 2435
20.92 2417
20.94 2431
20.96 2460
20.98 2449
21 2366
21.02 2488
21.04 2558
21.06 2395
21.08 2358
21.1 2434
21.12 2476
21.14 2365
21.16 2331
21.18 2311
21.2 2448
21.22 2354
21.24 2278
21.26 2286
21.28 2354
21.3 2372
21.32 2327
21.34 2297
21.36 2345
21.38 2312
21.4 2366
21.42 2371
21.44 2280
21.46 2258
21.48 2347
21.5 2320
21.52 2299
21.54 2285
21.56 2270
21.58 2385
21.6 2377
21.62 2349
21.64 2314
21.66 2343
21.68 2349
21.7 2395
21.72 2378
21.74 2471
21.76 2561
21.78 2635
21.8 2566
21.82 2533
21.84 2458
21.86 2473
21.88 2363
21.9 2394
21.92 2263
21.94 2414
21.96 2294
21.98 2256
22 2339
22.02 2380
22.04 2213
22.06 2366
22.08 2266
22.1 2286
22.12 2322
22.14 2334
22.16 2263
22.18 2312
22.2 2338
22.22 2389
22.24 2380
22.26 2431
22.28 2435
22.3 2513
22.32 2512
22.34 2502
22.36 2443
22.38 2540
22.4 2369
22.42 2357
22.44 2240
22.46 2327
22.48 2247
22.5 2227
22.52 2237
22.54 2155
22.56 2223
22.58 2257
22.6 2173
22.62 2241
22.64 2190
22.66 2263
22.68 2160
22.7 2235
22.72 2202
22.74 2208
22.76 2190
22.78 2079
22.8 2216
22.82 2166
22.84 2203
22.86 2159
22.88 2266
22.9 2220
22.92 2186
22.94 2214
22.96 2212
22.98 2239
23 2258
23.02 2356
23.04 2301
23.06 2265
23.08 2223
23.1 2113
23.12 2204
23.14 2133
23.16 2101
23.18 2151
23.2 2159
23.22 2088
23.24 2118
23.26 2071
23.28 2141
23.3 2038
23.32 2129
23.34 2171
23.36 2121
23.38 2129
23.4 2165
23.42 2063
23.44 2026
23.46 2097
23.48 2079
23.5 2068
23.52 2117
23.54 2076
23.56 2104
23.58 2181
23.6 2126
23.62 2175
23.64 2221
23.66 2195
23.68 2405
23.7 2554
23.72 2689
23.74 2720
23.76 2762
23.78 2689
23.8 2544
23.82 2400
23.84 2239
23.86 2252
23.88 2163
23.9 2021
23.92 2132
23.94 2175
23.96 2119
23.98 2093
24 2161
24.02 2145
24.04 2018
24.06 2095
24.08 1991
24.1 1988
24.12 2037
24.14 1932
24.16 1984
24.18 1964
24.2 2020
24.22 2007
24.24 2002
24.26 2007
24.28 2047
24.3 1987
24.32 2005
24.34 2015
24.36 1977
24.38 1987
24.4 2050
24.42 1995
24.44 1887
24.46 1916
24.48 1946
24.5 1844
24.52 1841
24.54 1969
24.56 1870
24.58 1907
24.6 1897
24.62 1914
24.64 1864
24.66 1927
24.68 1863
24.7 1929
24.72 1894
24.74 1955
24.76 1996
24.78 2015
24.8 2026
24.82 2056
24.84 2087
24.86 2281
24.88 2332
24.9 2393
24.92 2334
24.94 2209
24.96 2191
24.98 2005
25 1948
25.02 1922
25.04 1831
25.06 1923
25.08 1842
25.1 1864
25.12 1836
25.14 1899
25.16 1858
25.18 1815
25.2 1830
25.22 1781
25.24 1895
25.26 1865
25.28 1770
25.3 1822
25.32 1841
25.34 1922
25.36 1865
25.38 1907
25.4 1981
25.42 2072
25.44 2188
25.46 2227
25.48 2192
25.5 2336
25.52 2413
25.54 2496
25.56 2583
25.58 2689
25.6 2531
25.62 2424
25.64 2178
25.66 2126
25.68 2013
25.7 1985
25.72 1994
25.74 2129
25.76 2294
25.78 2373
25.8 2508
25.82 2601
25.84 2554
25.86 2427
25.88 2313
25.9 2155
25.92 2059
25.94 1898
25.96 1806
25.98 1777
26 1781
26.02 1768
26.04 1760
26.06 1710
26.08 1715
26.1 1736
26.12 1727
26.14 1745
26.16 1728
26.18 1663
26.2 1715
26.22 1681
26.24 1685
26.26 1734
26.28 1723
26.3 1686
26.32 1653
26.34 1720
26.36 1688
26.38 1668
26.4 1663
26.42 1740
26.44 1704
26.46 1667
26.48 1758
26.5 1735
26.52 1733
26.54 1811
26.56 1865
26.58 1969
26.6 2051
26.62 2163
26.64 2239
26.66 2113
26.68 2080
26.7 1928
26.72 1901
26.74 1829
26.76 1722
26.78 1721
26.8 1622
26.82 1675
26.84 1642
26.86 1688
26.88 1676
26.9 1635
26.92 1657
26.94 1588
26.96 1668
26.98 1656
27 1589
27.02 1660
27.04 1569
27.06 1612
27.08 1601
27.1 1641
27.12 1602
27.14 1556
27.16 1644
27.18 1577
27.2 1582
27.22 1732
27.24 1541
27.26 1740
27.28 1669
27.3 1593
27.32 1659
27.34 1707
27.36 1683
27.38 1748
27.4 1773
27.42 1996
27.44 2060
27.46 2136
27.48 2182
27.5 2026
27.52 1973
27.54 1914
27.56 1750
27.58 1740
27.6 1706
27.62 1555
27.64 1520
27.66 1541
27.68 1507
27.7 1487
27.72 1601
27.74 1542
27.76 1510
27.78 1581
27.8 1568
27.82 1506
27.84 1507
27.86 1522
27.88 1493
27.9 1486
27.92 1457
27.94 1544
27.96 1453
27.98 1431
28 1501
28.02 1474
28.04 1561
28.06 1473
28.08 1544
28.1 1542
28.12 1495
28.14 1565
28.16 1513
28.18 1663
28.2 1712
28.22 1848
28.24 1884
28.26 2030
28.28 2016
28.3 1957
28.32 1861
28.34 1804
28.36 1726
28.38 1697
28.4 1518
28.42 1529
28.44 1513
28.46 1456
28.48 1433
28.5 1466
28.52 1488
28.54 1398
28.56 1497
28.58 1411
28.6 1480
28.62 1504
28.64 1480
28.66 1454
28.68 1419
28.7 1478
28.72 1390
28.74 1506
28.76 1511
28.78 1548
28.8 1616
28.82 1769
28.84 1746
28.86 1796
28.88 1942
28.9 1860
28.92 1859
28.94 1728
28.96 1792
28.98 1724
29 1731
29.02 1826
29.04 1805
29.06 1871
29.08 1858
29.1 1796
29.12 1688
29.14 1703
29.16 1596
29.18 1513
29.2 1421
29.22 1377
29.24 1408
29.26 1397
29.28 1399
29.3 1330
29.32 1361
29.34 1435
29.36 1418
29.38 1291
29.4 1373
29.42 1365
29.44 1417
29.46 1338
29.48 1341
29.5 1362
29.52 1403
29.54 1304
29.56 1388
29.58 1414
29.6 1432
29.62 1339
29.64 1413
29.66 1375
29.68 1349
29.7 1352
29.72 1358
29.74 1339
29.76 1362
29.78 1388
29.8 1438
29.82 1427
29.84 1557
29.86 1561
29.88 1637
29.9 1674
29.92 1492
29.94 1494
29.96 1515
29.98 1431
30 1424