File: xrd-UiO-67/pxrddata/5-13.ASC
3 2041
3.02 1921
3.04 1838
3.06 1625
3.08 1618
3.1 1581
3.12 1519
3.14 1529
3.16 1481
3.18 1582
3.2 1451
3.22 1447
3.24 1408
3.26 1392
3.28 1370
3.3 1378
3.32 1355
3.34 1353
3.36 1416
3.38 1355
3.4 1310
3.42 1329
3.44 1266
3.46 1249
3.48 1292
3.5 1254
3.52 1308
3.54 1220
3.56 1281
3.58 1220
3.6 1267
3.62 1155
3.64 1173
3.66 1104
3.68 1092
3.7 1176
3.72 1064
3.74 1095
3.76 1131
3.78 1129
3.8 1072
3.82 1134
3.84 1091
3.86 1070
3.88 1129
3.9 1070
3.92 1113
3.94 1000
3.96 1009
3.98 1078
4 1043
4.02 1043
4.04 1007
4.06 956
4.08 1001
4.1 987
4.12 962
4.14 944
4.16 978
4.18 895
4.2 932
4.22 904
4.24 916
4.26 941
4.28 916
4.3 894
4.32 891
4.34 942
4.36 937
4.38 896
4.4 911
4.42 868
4.44 831
4.46 855
4.48 829
4.5 894
4.52 826
4.54 823
4.56 876
4.58 879
4.6 825
4.62 822
4.64 832
4.66 834
4.68 876
4.7 877
4.72 841
4.74 893
4.76 843
4.78 882
4.8 853
4.82 843
4.84 846
4.86 887
4.88 850
4.9 823
4.92 801
4.94 863
4.96 871
4.98 885
5 894
5.02 893
5.04 894
5.06 908
5.08 926
5.1 986
5.12 993
5.14 1045
5.16 1003
5.18 1049
5.2 1021
5.22 1091
5.24 1130
5.26 1164
5.28 1168
5.3 1160
5.32 1221
5.34 1275
5.36 1213
5.38 1291
5.4 1386
5.42 1456
5.44 1499
5.46 1633
5.48 1630
5.5 1750
5.52 1760
5.54 1914
5.56 2007
5.58 2109
5.6 2278
5.62 2441
5.64 2536
5.66 2790
5.68 3081
5.7 3351
5.72 3791
5.74 4257
5.76 5219
5.78 6364
5.8 7309
5.82 6921
5.84 5203
5.86 3115
5.88 1775
5.9 1241
5.92 1035
5.94 1031
5.96 973
5.98 921
6 979
6.02 983
6.04 910
6.06 954
6.08 973
6.1 960
6.12 949
6.14 967
6.16 1012
6.18 999
6.2 984
6.22 952
6.24 1035
6.26 1044
6.28 1052
6.3 1094
6.32 1135
6.34 1141
6.36 1255
6.38 1250
6.4 1271
6.42 1382
6.44 1456
6.46 1501
6.48 1535
6.5 1578
6.52 1757
6.54 1921
6.56 2053
6.58 2210
6.6 2463
6.62 2783
6.64 3152
6.66 3743
6.68 4377
6.7 4259
6.72 3370
6.74 2115
6.76 1355
6.78 1017
6.8 914
6.82 913
6.84 864
6.86 834
6.88 837
6.9 780
6.92 808
6.94 861
6.96 802
6.98 829
7 763
7.02 806
7.04 881
7.06 863
7.08 894
7.1 868
7.12 917
7.14 887
7.16 992
7.18 953
7.2 888
7.22 928
7.24 996
7.26 1042
7.28 999
7.3 1040
7.32 1123
7.34 1143
7.36 1145
7.38 1262
7.4 1385
7.42 1498
7.44 1625
7.46 1835
7.48 1853
7.5 1766
7.52 1409
7.54 1049
7.56 927
7.58 787
7.6 791
7.62 776
7.64 734
7.66 787
7.68 731
7.7 706
7.72 740
7.74 779
7.76 781
7.78 772
7.8 723
7.82 746
7.84 696
7.86 785
7.88 733
7.9 752
7.92 721
7.94 745
7.96 744
7.98 745
8 747
8.02 824
8.04 783
8.06 721
8.08 741
8.1 750
8.12 792
8.14 805
8.16 752
8.18 797
8.2 806
8.22 756
8.24 728
8.26 772
8.28 829
8.3 830
8.32 785
8.34 818
8.36 834
8.38 837
8.4 871
8.42 872
8.44 886
8.46 899
8.48 952
8.5 999
8.52 1015
8.54 1079
8.56 1071
8.58 1192
8.6 1222
8.62 1285
8.64 1232
8.66 1043
8.68 907
8.7 878
8.72 778
8.74 759
8.76 782
8.78 782
8.8 806
8.82 723
8.84 840
8.86 802
8.88 799
8.9 812
8.92 795
8.94 824
8.96 908
8.98 845
9 861
9.02 875
9.04 912
9.06 900
9.08 988
9.1 1022
9.12 1034
9.14 1068
9.16 1152
9.18 1169
9.2 1216
9.22 1314
9.24 1422
9.26 1455
9.28 1630
9.3 1812
9.32 1991
9.34 2253
9.36 2629
9.38 3009
9.4 3318
9.42 3385
9.44 2890
9.46 2092
9.48 1393
9.5 1024
9.52 834
9.54 802
9.56 787
9.58 846
9.6 809
9.62 699
9.64 717
9.66 798
9.68 767
9.7 788
9.72 742
9.74 775
9.76 803
9.78 784
9.8 775
9.82 801
9.84 759
9.86 756
9.88 788
9.9 781
9.92 764
9.94 784
9.96 793
9.98 760
10 730
10.02 760
10.04 791
10.06 768
10.08 776
10.1 742
10.12 767
10.14 775
10.16 798
10.18 789
10.2 723
10.22 755
10.24 762
10.26 781
10.28 761
10.3 766
10.32 745
10.34 722
10.36 835
10.38 753
10.4 831
10.42 805
10.44 800
10.46 779
10.48 797
10.5 794
10.52 839
10.54 822
10.56 825
10.58 837
10.6 922
10.62 870
10.64 828
10.66 923
10.68 907
10.7 972
10.72 1018
10.74 1034
10.76 1053
10.78 1109
10.8 1239
10.82 1301
10.84 1352
10.86 1531
10.88 1602
10.9 1674
10.92 1898
10.94 2059
10.96 2350
10.98 2757
11 3190
11.02 3383
11.04 3200
11.06 2521
11.08 1679
11.1 1239
11.12 1087
11.14 978
11.16 948
11.18 919
11.2 964
11.22 906
11.24 935
11.26 944
11.28 976
11.3 1009
11.32 1023
11.34 1061
11.36 1096
11.38 1212
11.4 1209
11.42 1355
11.44 1546
11.46 1751
11.48 1853
11.5 2039
11.52 2027
11.54 1687
11.56 1318
11.58 1082
11.6 938
11.62 804
11.64 878
11.66 812
11.68 811
11.7 806
11.72 844
11.74 862
11.76 829
11.78 791
11.8 767
11.82 792
11.84 826
11.86 816
11.88 824
11.9 844
11.92 855
11.94 851
11.96 850
11.98 914
12 889
12.02 901
12.04 885
12.06 932
12.08 930
12.1 980
12.12 950
12.14 991
12.16 1006
12.18 976
12.2 842
12.22 855
12.24 859
12.26 853
12.28 815
12.3 804
12.32 796
12.34 769
12.36 773
12.38 809
12.4 821
12.42 829
12.44 799
12.46 788
12.48 860
12.5 814
12.52 784
12.54 794
12.56 839
12.58 803
12.6 825
12.62 818
12.64 822
12.66 818
12.68 821
12.7 848
12.72 838
12.74 767
12.76 879
12.78 870
12.8 866
12.82 809
12.84 881
12.86 885
12.88 898
12.9 836
12.92 876
12.94 805
12.96 814
12.98 851
13 857
13.02 826
13.04 875
13.06 839
13.08 899
13.1 961
13.12 903
13.14 924
13.16 960
13.18 983
13.2 1022
13.22 1085
13.24 1172
13.26 1296
13.28 1236
13.3 1281
13.32 1137
13.34 1093
13.36 959
13.38 889
13.4 836
13.42 809
13.44 834
13.46 871
13.48 862
13.5 887
13.52 847
13.54 842
13.56 870
13.58 867
13.6 867
13.62 852
13.64 808
13.66 873
13.68 901
13.7 892
13.72 858
13.74 850
13.76 846
13.78 875
13.8 907
13.82 863
13.84 878
13.86 879
13.88 897
13.9 889
13.92 819
13.94 934
13.96 888
13.98 869
14 889
14.02 895
14.04 920
14.06 883
14.08 899
14.1 946
14.12 947
14.14 948
14.16 950
14.18 997
14.2 991
14.22 984
14.24 1027
14.26 1041
14.28 1009
14.3 1017
14.32 1030
14.34 980
14.36 1031
14.38 1101
14.4 1118
14.42 1152
14.44 1166
14.46 1325
14.48 1282
14.5 1226
14.52 1049
14.54 1042
14.56 1002
14.58 935
14.6 943
14.62 897
14.64 910
14.66 892
14.68 905
14.7 974
14.72 943
14.74 952
14.76 978
14.78 1026
14.8 1028
14.82 1007
14.84 1026
14.86 1072
14.88 995
14.9 994
14.92 967
14.94 955
14.96 932
14.98 872
15 851
15.02 885
15.04 958
15.06 990
15.08 928
15.1 966
15.12 922
15.14 928
15.16 917
15.18 973
15.2 932
15.22 922
15.24 956
15.26 951
15.28 1000
15.3 974
15.32 958
15.34 979
15.36 998
15.38 996
15.4 982
15.42 973
15.44 973
15.46 1007
15.48 985
15.5 1020
15.52 997
15.54 972
15.56 984
15.58 972
15.6 995
15.62 1066
15.64 983
15.66 960
15.68 959
15.7 1016
15.72 1006
15.74 1064
15.76 976
15.78 978
15.8 1036
15.82 1026
15.84 951
15.86 999
15.88 1064
15.9 999
15.92 1029
15.94 1125
15.96 1055
15.98 999
16 1077
16.02 1086
16.04 1093
16.06 1036
16.08 1000
16.1 1053
16.12 1016
16.14 1059
16.16 1050
16.18 1076
16.2 1077
16.22 1081
16.24 1010
16.26 1060
16.28 1087
16.3 1056
16.32 1084
16.34 1145
16.36 1078
16.38 1068
16.4 1057
16.42 1095
16.44 1128
16.46 1110
16.48 1107
16.5 1096
16.52 1091
16.54 1114
16.56 1119
16.58 1115
16.6 1106
16.62 1094
16.64 1177
16.66 1115
16.68 1132
16.7 1199
16.72 1124
16.74 1140
16.76 1109
16.78 1201
16.8 1206
16.82 1163
16.84 1154
16.86 1186
16.88 1229
16.9 1193
16.92 1256
16.94 1255
16.96 1236
16.98 1367
17 1311
17.02 1243
17.04 1289
17.06 1306
17.08 1325
17.1 1318
17.12 1385
17.14 1344
17.16 1479
17.18 1417
17.2 1566
17.22 1580
17.24 1646
17.26 1614
17.28 1576
17.3 1486
17.32 1374
17.34 1223
17.36 1229
17.38 1263
17.4 1178
17.42 1186
17.44 1263
17.46 1221
17.48 1218
17.5 1213
17.52 1219
17.54 1251
17.56 1255
17.58 1297
17.6 1280
17.62 1296
17.64 1266
17.66 1308
17.68 1293
17.7 1288
17.72 1337
17.74 1320
17.76 1321
17.78 1369
17.8 1247
17.82 1258
17.84 1270
17.86 1293
17.88 1407
17.9 1352
17.92 1314
17.94 1333
17.96 1329
17.98 1417
18 1362
18.02 1360
18.04 1402
18.06 1370
18.08 1294
18.1 1323
18.12 1366
18.14 1290
18.16 1311
18.18 1322
18.2 1315
18.22 1369
18.24 1327
18.26 1338
18.28 1435
18.3 1445
18.32 1390
18.34 1426
18.36 1418
18.38 1356
18.4 1402
18.42 1430
18.44 1373
18.46 1437
18.48 1423
18.5 1434
18.52 1457
18.54 1430
18.56 1477
18.58 1398
18.6 1457
18.62 1426
18.64 1424
18.66 1487
18.68 1477
18.7 1475
18.72 1540
18.74 1527
18.76 1508
18.78 1471
18.8 1477
18.82 1476
18.84 1463
18.86 1473
18.88 1475
18.9 1481
18.92 1468
18.94 1502
18.96 1538
18.98 1540
19 1527
19.02 1559
19.04 1491
19.06 1516
19.08 1516
19.1 1519
19.12 1574
19.14 1552
19.16 1567
19.18 1680
19.2 1569
19.22 1540
19.24 1543
19.26 1647
19.28 1631
19.3 1543
19.32 1579
19.34 1672
19.36 1595
19.38 1589
19.4 1606
19.42 1678
19.44 1663
19.46 1662
19.48 1719
19.5 1842
19.52 1820
19.54 1850
19.56 1993
19.58 2137
19.6 2296
19.62 2480
19.64 2688
19.66 2607
19.68 2386
19.7 2213
19.72 2061
19.74 1958
19.76 1937
19.78 1919
19.8 1934
19.82 2106
19.84 2207
19.86 2387
19.88 2692
19.9 2961
19.92 3241
19.94 3229
19.96 2882
19.98 2428
20 2091
20.02 1897
20.04 1799
20.06 1749
20.08 1687
20.1 1693
20.12 1676
20.14 1601
20.16 1597
20.18 1671
20.2 1695
20.22 1650
20.24 1718
20.26 1700
20.28 1708
20.3 1675
20.32 1681
20.34 1680
20.36 1611
20.38 1583
20.4 1705
20.42 1670
20.44 1746
20.46 1682
20.48 1640
20.5 1666
20.52 1654
20.54 1606
20.56 1690
20.58 1699
20.6 1680
20.62 1702
20.64 1669
20.66 1658
20.68 1688
20.7 1691
20.72 1670
20.74 1706
20.76 1708
20.78 1691
20.8 1728
20.82 1710
20.84 1756
20.86 1731
20.88 1719
20.9 1765
20.92 1718
20.94 1715
20.96 1667
20.98 1761
21 1763
21.02 1773
21.04 1806
21.06 1829
21.08 1738
21.1 1821
21.12 1735
21.14 1627
21.16 1729
21.18 1799
21.2 1693
21.22 1685
21.24 1690
21.26 1685
21.28 1788
21.3 1752
21.32 1686
21.34 1728
21.36 1676
21.38 1769
21.4 1674
21.42 1666
21.44 1693
21.46 1661
21.48 1753
21.5 1714
21.52 1703
21.54 1708
21.56 1743
21.58 1720
21.6 1680
21.62 1774
21.64 1746
21.66 1762
21.68 1881
21.7 1959
21.72 1969
21.74 2004
21.76 2088
21.78 2172
21.8 2112
21.82 1991
21.84 2017
21.86 1878
21.88 1805
21.9 1759
21.92 1701
21.94 1663
21.96 1691
21.98 1678
22 1728
22.02 1707
22.04 1691
22.06 1726
22.08 1696
22.1 1671
22.12 1683
22.14 1603
22.16 1676
22.18 1712
22.2 1670
22.22 1732
22.24 1656
22.26 1670
22.28 1699
22.3 1702
22.32 1791
22.34 1806
22.36 1768
22.38 1726
22.4 1683
22.42 1649
22.44 1765
22.46 1617
22.48 1581
22.5 1625
22.52 1661
22.54 1651
22.56 1585
22.58 1652
22.6 1613
22.62 1624
22.64 1603
22.66 1574
22.68 1611
22.7 1633
22.72 1618
22.74 1570
22.76 1599
22.78 1558
22.8 1634
22.82 1671
22.84 1646
22.86 1663
22.88 1620
22.9 1658
22.92 1628
22.94 1701
22.96 1721
22.98 1694
23 1767
23.02 1907
23.04 1777
23.06 1751
23.08 1683
23.1 1645
23.12 1563
23.14 1522
23.16 1589
23.18 1544
23.2 1580
23.22 1525
23.24 1568
23.26 1501
23.28 1498
23.3 1546
23.32 1437
23.34 1538
23.36 1500
23.38 1574
23.4 1573
23.42 1513
23.44 1497
23.46 1481
23.48 1541
23.5 1538
23.52 1588
23.54 1612
23.56 1706
23.58 1691
23.6 1719
23.62 1764
23.64 1805
23.66 1936
23.68 2076
23.7 2425
23.72 2713
23.74 2695
23.76 2678
23.78 2378
23.8 2140
23.82 1993
23.84 1757
23.86 1607
23.88 1674
23.9 1632
23.92 1560
23.94 1661
23.96 1686
23.98 1657
24 1693
24.02 1621
24.04 1673
24.06 1584
24.08 1401
24.1 1423
24.12 1438
24.14 1425
24.16 1440
24.18 1374
24.2 1390
24.22 1375
24.24 1408
24.26 1425
24.28 1477
24.3 1531
24.32 1510
24.34 1462
24.36 1425
24.38 1418
24.4 1389
24.42 1443
24.44 1418
24.46 1448
24.48 1399
24.5 1374
24.52 1418
24.54 1341
24.56 1384
24.58 1313
24.6 1443
24.62 1387
24.64 1362
24.66 1341
24.68 1380
24.7 1475
24.72 1505
24.74 1422
24.76 1426
24.78 1522
24.8 1682
24.82 1729
24.84 1913
24.86 1969
24.88 2255
24.9 2144
24.92 1970
24.94 1784
24.96 1757
24.98 1634
25 1417
25.02 1348
25.04 1377
25.06 1393
25.08 1374
25.1 1356
25.12 1317
25.14 1458
25.16 1327
25.18 1343
25.2 1358
25.22 1399
25.24 1381
25.26 1393
25.28 1438
25.3 1316
25.32 1431
25.34 1400
25.36 1459
25.38 1422
25.4 1561
25.42 1598
25.44 1722
25.46 1716
25.48 1919
25.5 2038
25.52 2301
25.54 2577
25.56 2713
25.58 2495
25.6 2245
25.62 2036
25.64 1956
25.66 1595
25.68 1462
25.7 1436
25.72 1328
25.74 1472
25.76 1474
25.78 1495
25.8 1730
25.82 1648
25.84 1609
25.86 1551
25.88 1460
25.9 1396
25.92 1283
25.94 1265
25.96 1226
25.98 1274
26 1283
26.02 1230
26.04 1236
26.06 1251
26.08 1261
26.1 1219
26.12 1243
26.14 1195
26.16 1186
26.18 1167
26.2 1213
26.22 1236
26.24 1201
26.26 1133
26.28 1243
26.3 1269
26.32 1222
26.34 1171
26.36 1276
26.38 1216
26.4 1255
26.42 1236
26.44 1250
26.46 1223
26.48 1275
26.5 1249
26.52 1351
26.54 1358
26.56 1419
26.58 1636
26.6 1829
26.62 1902
26.64 1926
26.66 1880
26.68 1671
26.7 1560
26.72 1411
26.74 1379
26.76 1244
26.78 1174
26.8 1243
26.82 1215
26.84 1205
26.86 1183
26.88 1148
26.9 1196
26.92 1201
26.94 1174
26.96 1160
26.98 1160
27 1135
27.02 1127
27.04 1169
27.06 1149
27.08 1146
27.1 1150
27.12 1160
27.14 1202
27.16 1147
27.18 1200
27.2 1080
27.22 1179
27.24 1152
27.26 1205
27.28 1271
27.3 1243
27.32 1295
27.34 1340
27.36 1413
27.38 1400
27.4 1613
27.42 1823
27.44 1880
27.46 2089
27.48 2060
27.5 1866
27.52 1676
27.54 1587
27.56 1403
27.58 1255
27.6 1158
27.62 1096
27.64 1096
27.66 1115
27.68 1075
27.7 1095
27.72 1096
27.74 1085
27.76 1073
27.78 1068
27.8 1074
27.82 1117
27.84 1107
27.86 1044
27.88 1096
27.9 1045
27.92 1081
27.94 1080
27.96 1123
27.98 1090
28 1065
28.02 1079
28.04 1034
28.06 1114
28.08 1089
28.1 1121
28.12 1150
28.14 1150
28.16 1209
28.18 1191
28.2 1251
28.22 1326
28.24 1472
28.26 1455
28.28 1546
28.3 1409
28.32 1405
28.34 1308
28.36 1260
28.38 1200
28.4 1125
28.42 1065
28.44 1079
28.46 1018
28.48 1050
28.5 1060
28.52 1030
28.54 1046
28.56 996
28.58 1031
28.6 1055
28.62 1070
28.64 1065
28.66 1061
28.68 1030
28.7 1074
28.72 1087
28.74 1182
28.76 1184
28.78 1258
28.8 1355
28.82 1525
28.84 1719
28.86 1766
28.88 1817
28.9 1618
28.92 1532
28.94 1518
28.96 1465
28.98 1388
29 1437
29.02 1513
29.04 1582
29.06 1731
29.08 1698
29.1 1534
29.12 1345
29.14 1371
29.16 1253
29.18 1121
29.2 1081
29.22 1048
29.24 977
29.26 1073
29.28 977
29.3 950
29.32 1037
29.34 945
29.36 941
29.38 965
29.4 997
29.42 1004
29.44 995
29.46 1015
29.48 986
29.5 960
29.52 968
29.54 948
29.56 926
29.58 1047
29.6 973
29.62 986
29.64 983
29.66 982
29.68 974
29.7 976
29.72 951
29.74 985
29.76 994
29.78 995
29.8 1029
29.82 1011
29.84 1067
29.86 1098
29.88 1141
29.9 1083
29.92 1067
29.94 1030
29.96 1034
29.98 1014
30 959