File: xrd-UiO-67/pxrddata/5-14.ASC
3 1995
3.02 1870
3.04 1696
3.06 1610
3.08 1623
3.1 1478
3.12 1477
3.14 1478
3.16 1496
3.18 1377
3.2 1446
3.22 1427
3.24 1376
3.26 1395
3.28 1360
3.3 1445
3.32 1329
3.34 1379
3.36 1379
3.38 1324
3.4 1353
3.42 1296
3.44 1263
3.46 1330
3.48 1344
3.5 1310
3.52 1306
3.54 1268
3.56 1239
3.58 1245
3.6 1208
3.62 1174
3.64 1159
3.66 1161
3.68 1218
3.7 1196
3.72 1193
3.74 1068
3.76 1160
3.78 1121
3.8 1119
3.82 1138
3.84 1095
3.86 1143
3.88 1050
3.9 1052
3.92 1076
3.94 1115
3.96 999
3.98 1039
4 1070
4.02 1017
4.04 1002
4.06 980
4.08 1007
4.1 962
4.12 1018
4.14 1098
4.16 1013
4.18 961
4.2 965
4.22 1025
4.24 996
4.26 1010
4.28 960
4.3 948
4.32 951
4.34 872
4.36 934
4.38 959
4.4 949
4.42 935
4.44 955
4.46 921
4.48 889
4.5 929
4.52 879
4.54 870
4.56 866
4.58 921
4.6 861
4.62 874
4.64 911
4.66 831
4.68 899
4.7 886
4.72 871
4.74 884
4.76 861
4.78 858
4.8 826
4.82 859
4.84 842
4.86 871
4.88 871
4.9 836
4.92 874
4.94 837
4.96 792
4.98 896
5 904
5.02 866
5.04 878
5.06 817
5.08 878
5.1 875
5.12 814
5.14 814
5.16 878
5.18 879
5.2 888
5.22 871
5.24 838
5.26 871
5.28 851
5.3 864
5.32 875
5.34 880
5.36 876
5.38 876
5.4 871
5.42 905
5.44 944
5.46 933
5.48 1003
5.5 1032
5.52 985
5.54 976
5.56 1071
5.58 1096
5.6 1079
5.62 1160
5.64 1216
5.66 1222
5.68 1275
5.7 1292
5.72 1410
5.74 1580
5.76 1897
5.78 2133
5.8 2290
5.82 2446
5.84 2314
5.86 1797
5.88 1108
5.9 921
5.92 856
5.94 860
5.96 918
5.98 854
6 902
6.02 859
6.04 895
6.06 840
6.08 863
6.1 896
6.12 872
6.14 855
6.16 871
6.18 894
6.2 845
6.22 901
6.24 894
6.26 904
6.28 885
6.3 884
6.32 925
6.34 870
6.36 925
6.38 941
6.4 988
6.42 933
6.44 943
6.46 1020
6.48 1051
6.5 1019
6.52 1104
6.54 1138
6.56 1149
6.58 1191
6.6 1281
6.62 1336
6.64 1482
6.66 1632
6.68 1782
6.7 1824
6.72 1466
6.74 1126
6.76 985
6.78 883
6.8 904
6.82 892
6.84 911
6.86 880
6.88 849
6.9 831
6.92 869
6.94 860
6.96 836
6.98 907
7 888
7.02 904
7.04 885
7.06 890
7.08 876
7.1 867
7.12 881
7.14 877
7.16 888
7.18 851
7.2 881
7.22 884
7.24 867
7.26 855
7.28 885
7.3 856
7.32 907
7.34 903
7.36 947
7.38 991
7.4 944
7.42 938
7.44 914
7.46 1000
7.48 1027
7.5 968
7.52 944
7.54 887
7.56 950
7.58 827
7.6 893
7.62 861
7.64 942
7.66 874
7.68 893
7.7 893
7.72 852
7.74 893
7.76 865
7.78 888
7.8 869
7.82 923
7.84 898
7.86 888
7.88 869
7.9 878
7.92 930
7.94 860
7.96 869
7.98 879
8 904
8.02 858
8.04 840
8.06 909
8.08 943
8.1 886
8.12 853
8.14 867
8.16 856
8.18 892
8.2 906
8.22 917
8.24 890
8.26 938
8.28 895
8.3 894
8.32 887
8.34 898
8.36 897
8.38 899
8.4 894
8.42 942
8.44 931
8.46 895
8.48 973
8.5 927
8.52 948
8.54 950
8.56 929
8.58 932
8.6 971
8.62 988
8.64 948
8.66 923
8.68 933
8.7 902
8.72 917
8.74 900
8.76 885
8.78 943
8.8 967
8.82 922
8.84 896
8.86 965
8.88 931
8.9 923
8.92 933
8.94 888
8.96 977
8.98 934
9 1005
9.02 1022
9.04 993
9.06 1028
9.08 945
9.1 1009
9.12 1090
9.14 989
9.16 1061
9.18 1143
9.2 1074
9.22 1105
9.24 1157
9.26 1182
9.28 1204
9.3 1272
9.32 1402
9.34 1486
9.36 1703
9.38 1869
9.4 1971
9.42 1922
9.44 1664
9.46 1334
9.48 1067
9.5 971
9.52 965
9.54 958
9.56 946
9.58 977
9.6 948
9.62 954
9.64 941
9.66 926
9.68 908
9.7 900
9.72 923
9.74 970
9.76 951
9.78 964
9.8 936
9.82 938
9.84 957
9.86 1020
9.88 993
9.9 931
9.92 942
9.94 916
9.96 961
9.98 964
10 942
10.02 960
10.04 974
10.06 933
10.08 938
10.1 962
10.12 938
10.14 945
10.16 968
10.18 948
10.2 991
10.22 991
10.24 971
10.26 975
10.28 989
10.3 954
10.32 977
10.34 1024
10.36 955
10.38 1045
10.4 973
10.42 1006
10.44 974
10.46 982
10.48 1029
10.5 976
10.52 980
10.54 983
10.56 978
10.58 1009
10.6 1051
10.62 1050
10.64 1043
10.66 1018
10.68 1028
10.7 1080
10.72 1097
10.74 1084
10.76 1149
10.78 1194
10.8 1199
10.82 1233
10.84 1270
10.86 1297
10.88 1361
10.9 1291
10.92 1463
10.94 1622
10.96 1895
10.98 2093
11 2196
11.02 2242
11.04 2046
11.06 1674
11.08 1265
11.1 1165
11.12 1050
11.14 1140
11.16 1075
11.18 1059
11.2 1068
11.22 1095
11.24 1044
11.26 1070
11.28 1120
11.3 1165
11.32 1152
11.34 1169
11.36 1188
11.38 1232
11.4 1307
11.42 1349
11.44 1533
11.46 1723
11.48 1789
11.5 1833
11.52 1645
11.54 1465
11.56 1338
11.58 1185
11.6 1150
11.62 1037
11.64 1065
11.66 1073
11.68 1107
11.7 1068
11.72 1048
11.74 1103
11.76 1066
11.78 1052
11.8 1044
11.82 1094
11.84 1089
11.86 1102
11.88 1080
11.9 1122
11.92 1075
11.94 1071
11.96 1085
11.98 1063
12 1092
12.02 1064
12.04 1071
12.06 1067
12.08 1124
12.1 1131
12.12 1147
12.14 1167
12.16 1163
12.18 1155
12.2 1114
12.22 1106
12.24 1112
12.26 1238
12.28 1115
12.3 1146
12.32 1127
12.34 1142
12.36 1116
12.38 1062
12.4 1145
12.42 1130
12.44 1115
12.46 1149
12.48 1191
12.5 1165
12.52 1183
12.54 1123
12.56 1107
12.58 1127
12.6 1167
12.62 1164
12.64 1111
12.66 1131
12.68 1162
12.7 1159
12.72 1196
12.74 1204
12.76 1178
12.78 1225
12.8 1191
12.82 1148
12.84 1177
12.86 1114
12.88 1126
12.9 1214
12.92 1248
12.94 1176
12.96 1172
12.98 1177
13 1266
13.02 1224
13.04 1224
13.06 1263
13.08 1268
13.1 1271
13.12 1276
13.14 1257
13.16 1272
13.18 1285
13.2 1300
13.22 1426
13.24 1391
13.26 1408
13.28 1433
13.3 1446
13.32 1321
13.34 1323
13.36 1273
13.38 1298
13.4 1274
13.42 1201
13.44 1216
13.46 1256
13.48 1230
13.5 1180
13.52 1203
13.54 1137
13.56 1212
13.58 1232
13.6 1253
13.62 1267
13.64 1237
13.66 1343
13.68 1276
13.7 1296
13.72 1315
13.74 1300
13.76 1274
13.78 1265
13.8 1261
13.82 1265
13.84 1335
13.86 1249
13.88 1268
13.9 1306
13.92 1287
13.94 1312
13.96 1357
13.98 1320
14 1317
14.02 1315
14.04 1297
14.06 1391
14.08 1363
14.1 1374
14.12 1315
14.14 1322
14.16 1362
14.18 1371
14.2 1420
14.22 1366
14.24 1373
14.26 1417
14.28 1341
14.3 1379
14.32 1432
14.34 1426
14.36 1490
14.38 1472
14.4 1531
14.42 1598
14.44 1638
14.46 1551
14.48 1581
14.5 1450
14.52 1485
14.54 1431
14.56 1371
14.58 1441
14.6 1401
14.62 1465
14.64 1443
14.66 1452
14.68 1426
14.7 1475
14.72 1440
14.74 1424
14.76 1466
14.78 1503
14.8 1518
14.82 1498
14.84 1475
14.86 1511
14.88 1506
14.9 1461
14.92 1540
14.94 1515
14.96 1552
14.98 1546
15 1534
15.02 1490
15.04 1525
15.06 1529
15.08 1522
15.1 1497
15.12 1490
15.14 1502
15.16 1501
15.18 1546
15.2 1561
15.22 1541
15.24 1450
15.26 1510
15.28 1467
15.3 1502
15.32 1525
15.34 1530
15.36 1502
15.38 1525
15.4 1516
15.42 1559
15.44 1626
15.46 1624
15.48 1578
15.5 1551
15.52 1544
15.54 1578
15.56 1680
15.58 1615
15.6 1636
15.62 1654
15.64 1573
15.66 1631
15.68 1699
15.7 1724
15.72 1633
15.74 1710
15.76 1639
15.78 1645
15.8 1697
15.82 1614
15.84 1585
15.86 1665
15.88 1623
15.9 1709
15.92 1689
15.94 1652
15.96 1655
15.98 1713
16 1734
16.02 1756
16.04 1669
16.06 1720
16.08 1651
16.1 1736
16.12 1763
16.14 1753
16.16 1744
16.18 1779
16.2 1717
16.22 1713
16.24 1749
16.26 1793
16.28 1743
16.3 1796
16.32 1769
16.34 1791
16.36 1736
16.38 1758
16.4 1877
16.42 1765
16.44 1798
16.46 1755
16.48 1835
16.5 1792
16.52 1866
16.54 1892
16.56 1860
16.58 1903
16.6 1817
16.62 1869
16.64 1908
16.66 1855
16.68 1892
16.7 1893
16.72 1946
16.74 2001
16.76 1911
16.78 1906
16.8 1975
16.82 1972
16.84 1924
16.86 1930
16.88 1923
16.9 1958
16.92 2071
16.94 2025
16.96 2023
16.98 2089
17 2054
17.02 2105
17.04 2030
17.06 2055
17.08 2094
17.1 2173
17.12 2080
17.14 2061
17.16 2076
17.18 2209
17.2 2289
17.22 2340
17.24 2359
17.26 2171
17.28 2260
17.3 2204
17.32 2199
17.34 2034
17.36 2075
17.38 2143
17.4 1982
17.42 2042
17.44 2150
17.46 2096
17.48 2106
17.5 2185
17.52 2213
17.54 2193
17.56 2152
17.58 2088
17.6 2194
17.62 2236
17.64 2101
17.66 2168
17.68 2295
17.7 2181
17.72 2096
17.74 2142
17.76 2181
17.78 2188
17.8 2220
17.82 2204
17.84 2193
17.86 2357
17.88 2281
17.9 2221
17.92 2312
17.94 2309
17.96 2352
17.98 2247
18 2275
18.02 2307
18.04 2322
18.06 2350
18.08 2298
18.1 2325
18.12 2285
18.14 2363
18.16 2372
18.18 2257
18.2 2372
18.22 2463
18.24 2317
18.26 2371
18.28 2340
18.3 2391
18.32 2363
18.34 2494
18.36 2384
18.38 2476
18.4 2439
18.42 2450
18.44 2392
18.46 2464
18.48 2395
18.5 2420
18.52 2558
18.54 2521
18.56 2539
18.58 2497
18.6 2433
18.62 2547
18.64 2598
18.66 2594
18.68 2463
18.7 2504
18.72 2526
18.74 2525
18.76 2575
18.78 2613
18.8 2567
18.82 2592
18.84 2574
18.86 2612
18.88 2641
18.9 2596
18.92 2548
18.94 2667
18.96 2625
18.98 2685
19 2663
19.02 2645
19.04 2642
19.06 2662
19.08 2681
19.1 2641
19.12 2724
19.14 2759
19.16 2716
19.18 2692
19.2 2752
19.22 2734
19.24 2730
19.26 2734
19.28 2721
19.3 2739
19.32 2712
19.34 2718
19.36 2777
19.38 2747
19.4 2784
19.42 2866
19.44 2875
19.46 2777
19.48 2872
19.5 2940
19.52 2909
19.54 2980
19.56 3064
19.58 3241
19.6 3367
19.62 3660
19.64 3661
19.66 3608
19.68 3457
19.7 3295
19.72 3090
19.74 3091
19.76 3079
19.78 3114
19.8 3077
19.82 3238
19.84 3488
19.86 3606
19.88 3899
19.9 4053
19.92 4018
19.94 3906
19.96 3654
19.98 3364
20 3078
20.02 2947
20.04 2957
20.06 2904
20.08 2916
20.1 3019
20.12 2908
20.14 2868
20.16 2882
20.18 2870
20.2 2915
20.22 2989
20.24 2979
20.26 2945
20.28 3055
20.3 2908
20.32 2964
20.34 2955
20.36 2903
20.38 2942
20.4 2861
20.42 2976
20.44 2902
20.46 2892
20.48 3035
20.5 2877
20.52 2938
20.54 2918
20.56 2931
20.58 2807
20.6 2962
20.62 2912
20.64 2916
20.66 2960
20.68 2928
20.7 2842
20.72 2974
20.74 2961
20.76 2938
20.78 2911
20.8 2960
20.82 2928
20.84 3012
20.86 2938
20.88 2945
20.9 2908
20.92 3003
20.94 2912
20.96 3033
20.98 3024
21 3031
21.02 2897
21.04 2970
21.06 2938
21.08 2969
21.1 3013
21.12 2982
21.14 2999
21.16 2999
21.18 2990
21.2 2951
21.22 2892
21.24 3016
21.26 2853
21.28 2894
21.3 2997
21.32 2926
21.34 2952
21.36 2924
21.38 2963
21.4 2948
21.42 2908
21.44 2928
21.46 2909
21.48 2969
21.5 3029
21.52 2968
21.54 2893
21.56 2916
21.58 2947
21.6 2952
21.62 3055
21.64 2974
21.66 3010
21.68 3038
21.7 3125
21.72 3135
21.74 3244
21.76 3333
21.78 3349
21.8 3227
21.82 3176
21.84 3090
21.86 2948
21.88 2969
21.9 2794
21.92 2854
21.94 2834
21.96 2746
21.98 2853
22 2826
22.02 2840
22.04 2833
22.06 2845
22.08 2859
22.1 2754
22.12 2758
22.14 2850
22.16 2791
22.18 2915
22.2 2822
22.22 2861
22.24 2765
22.26 2779
22.28 2752
22.3 2751
22.32 2858
22.34 2820
22.36 2715
22.38 2773
22.4 2796
22.42 2778
22.44 2772
22.46 2743
22.48 2826
22.5 2694
22.52 2775
22.54 2695
22.56 2724
22.58 2732
22.6 2743
22.62 2751
22.64 2662
22.66 2728
22.68 2695
22.7 2688
22.72 2699
22.74 2728
22.76 2659
22.78 2709
22.8 2662
22.82 2687
22.84 2668
22.86 2620
22.88 2753
22.9 2700
22.92 2685
22.94 2694
22.96 2692
22.98 2857
23 2841
23.02 2832
23.04 2869
23.06 2840
23.08 2686
23.1 2640
23.12 2652
23.14 2610
23.16 2627
23.18 2576
23.2 2591
23.22 2582
23.24 2526
23.26 2644
23.28 2615
23.3 2547
23.32 2533
23.34 2477
23.36 2520
23.38 2526
23.4 2504
23.42 2587
23.44 2475
23.46 2477
23.48 2545
23.5 2589
23.52 2573
23.54 2575
23.56 2643
23.58 2687
23.6 2675
23.62 2725
23.64 2741
23.66 2988
23.68 3116
23.7 3458
23.72 3583
23.74 3508
23.76 3382
23.78 3199
23.8 2995
23.82 2738
23.84 2607
23.86 2597
23.88 2593
23.9 2516
23.92 2576
23.94 2613
23.96 2622
23.98 2598
24 2541
24.02 2515
24.04 2496
24.06 2584
24.08 2429
24.1 2370
24.12 2402
24.14 2377
24.16 2414
24.18 2305
24.2 2398
24.22 2414
24.24 2357
24.26 2287
24.28 2417
24.3 2329
24.32 2286
24.34 2374
24.36 2318
24.38 2287
24.4 2272
24.42 2307
24.44 2398
24.46 2355
24.48 2266
24.5 2239
24.52 2202
24.54 2287
24.56 2383
24.58 2289
24.6 2302
24.62 2351
24.64 2290
24.66 2329
24.68 2306
24.7 2276
24.72 2308
24.74 2395
24.76 2357
24.78 2324
24.8 2552
24.82 2615
24.84 2937
24.86 3006
24.88 2942
24.9 2941
24.92 2732
24.94 2676
24.96 2427
24.98 2300
25 2281
25.02 2208
25.04 2239
25.06 2240
25.08 2204
25.1 2260
25.12 2227
25.14 2275
25.16 2197
25.18 2194
25.2 2200
25.22 2149
25.24 2214
25.26 2289
25.28 2274
25.3 2237
25.32 2267
25.34 2191
25.36 2211
25.38 2212
25.4 2319
25.42 2257
25.44 2424
25.46 2477
25.48 2604
25.5 2785
25.52 3123
25.54 3294
25.56 3237
25.58 3117
25.6 2818
25.62 2496
25.64 2320
25.66 2227
25.68 2143
25.7 2063
25.72 2129
25.74 2071
25.76 2075
25.78 2149
25.8 2144
25.82 2101
25.84 2159
25.86 2012
25.88 2084
25.9 2052
25.92 2006
25.94 2001
25.96 1993
25.98 1958
26 1984
26.02 2053
26.04 1959
26.06 2015
26.08 2048
26.1 2006
26.12 1962
26.14 1980
26.16 2015
26.18 1914
26.2 1938
26.22 1986
26.24 1968
26.26 1920
26.28 1915
26.3 1912
26.32 1902
26.34 1872
26.36 1909
26.38 1941
26.4 1957
26.42 1962
26.44 2032
26.46 1992
26.48 1988
26.5 2063
26.52 2000
26.54 2153
26.56 2207
26.58 2321
26.6 2580
26.62 2633
26.64 2569
26.66 2474
26.68 2316
26.7 2154
26.72 2051
26.74 2103
26.76 1992
26.78 1908
26.8 1950
26.82 1943
26.84 1981
26.86 1961
26.88 1885
26.9 1908
26.92 1825
26.94 1864
26.96 1915
26.98 1846
27 1881
27.02 1881
27.04 1910
27.06 1777
27.08 1879
27.1 1771
27.12 1870
27.14 1839
27.16 1835
27.18 1852
27.2 1811
27.22 1788
27.24 1822
27.26 1834
27.28 1932
27.3 1865
27.32 1957
27.34 1955
27.36 2011
27.38 2186
27.4 2220
27.42 2495
27.44 2719
27.46 2681
27.48 2541
27.5 2466
27.52 2237
27.54 2081
27.56 1945
27.58 1853
27.6 1755
27.62 1833
27.64 1815
27.66 1787
27.68 1715
27.7 1752
27.72 1736
27.74 1773
27.76 1779
27.78 1821
27.8 1757
27.82 1692
27.84 1750
27.86 1708
27.88 1702
27.9 1703
27.92 1741
27.94 1778
27.96 1668
27.98 1691
28 1709
28.02 1708
28.04 1733
28.06 1698
28.08 1660
28.1 1764
28.12 1726
28.14 1686
28.16 1716
28.18 1795
28.2 1807
28.22 1874
28.24 2010
28.26 1918
28.28 1903
28.3 1957
28.32 1826
28.34 1822
28.36 1740
28.38 1715
28.4 1692
28.42 1678
28.44 1660
28.46 1625
28.48 1691
28.5 1659
28.52 1673
28.54 1672
28.56 1597
28.58 1590
28.6 1643
28.62 1584
28.64 1585
28.66 1644
28.68 1624
28.7 1703
28.72 1648
28.74 1665
28.76 1751
28.78 1858
28.8 1988
28.82 2133
28.84 2390
28.86 2348
28.88 2236
28.9 2113
28.92 2166
28.94 1956
28.96 2001
28.98 1951
29 1986
29.02 2106
29.04 2195
29.06 2227
29.08 2162
29.1 1999
29.12 1918
29.14 1816
29.16 1744
29.18 1693
29.2 1640
29.22 1600
29.24 1598
29.26 1552
29.28 1566
29.3 1533
29.32 1539
29.34 1472
29.36 1472
29.38 1563
29.4 1503
29.42 1548
29.44 1476
29.46 1470
29.48 1608
29.5 1487
29.52 1469
29.54 1482
29.56 1485
29.58 1504
29.6 1465
29.62 1485
29.64 1445
29.66 1486
29.68 1467
29.7 1471
29.72 1462
29.74 1465
29.76 1476
29.78 1496
29.8 1460
29.82 1431
29.84 1523
29.86 1493
29.88 1521
29.9 1423
29.92 1505
29.94 1428
29.96 1426
29.98 1472
30 1504