File: xrd-UiO-67/pxrddata/5-15.ASC
3 2157
3.02 2055
3.04 1933
3.06 1873
3.08 1804
3.1 1733
3.12 1733
3.14 1647
3.16 1682
3.18 1695
3.2 1542
3.22 1626
3.24 1636
3.26 1678
3.28 1572
3.3 1519
3.32 1506
3.34 1439
3.36 1583
3.38 1550
3.4 1542
3.42 1499
3.44 1528
3.46 1494
3.48 1505
3.5 1453
3.52 1416
3.54 1381
3.56 1421
3.58 1424
3.6 1417
3.62 1370
3.64 1360
3.66 1343
3.68 1374
3.7 1369
3.72 1298
3.74 1322
3.76 1227
3.78 1278
3.8 1287
3.82 1261
3.84 1208
3.86 1218
3.88 1240
3.9 1226
3.92 1270
3.94 1223
3.96 1187
3.98 1217
4 1227
4.02 1143
4.04 1133
4.06 1138
4.08 1198
4.1 1181
4.12 1141
4.14 1180
4.16 1125
4.18 1151
4.2 1118
4.22 1099
4.24 1179
4.26 1054
4.28 1082
4.3 1075
4.32 1058
4.34 1070
4.36 1078
4.38 1099
4.4 1110
4.42 1044
4.44 1119
4.46 1062
4.48 1009
4.5 1031
4.52 1015
4.54 1061
4.56 1006
4.58 1050
4.6 1040
4.62 957
4.64 956
4.66 996
4.68 1040
4.7 1002
4.72 993
4.74 958
4.76 1048
4.78 1007
4.8 1052
4.82 960
4.84 1028
4.86 995
4.88 986
4.9 1011
4.92 1023
4.94 909
4.96 1008
4.98 1017
5 1019
5.02 993
5.04 940
5.06 1009
5.08 990
5.1 973
5.12 975
5.14 983
5.16 887
5.18 957
5.2 988
5.22 917
5.24 954
5.26 946
5.28 978
5.3 964
5.32 945
5.34 968
5.36 990
5.38 992
5.4 970
5.42 974
5.44 961
5.46 1001
5.48 978
5.5 987
5.52 940
5.54 964
5.56 952
5.58 951
5.6 977
5.62 1000
5.64 953
5.66 988
5.68 1018
5.7 1047
5.72 1041
5.74 1097
5.76 1078
5.78 1058
5.8 1031
5.82 966
5.84 983
5.86 1007
5.88 978
5.9 930
5.92 1007
5.94 955
5.96 935
5.98 1027
6 990
6.02 919
6.04 1047
6.06 967
6.08 945
6.1 992
6.12 942
6.14 921
6.16 995
6.18 972
6.2 1009
6.22 1007
6.24 935
6.26 1010
6.28 974
6.3 985
6.32 1011
6.34 1021
6.36 973
6.38 998
6.4 986
6.42 961
6.44 965
6.46 971
6.48 995
6.5 1004
6.52 1033
6.54 1037
6.56 1019
6.58 1011
6.6 954
6.62 1046
6.64 930
6.66 1033
6.68 1040
6.7 1026
6.72 1000
6.74 1006
6.76 1016
6.78 1078
6.8 1007
6.82 985
6.84 1033
6.86 1043
6.88 936
6.9 978
6.92 999
6.94 992
6.96 964
6.98 1033
7 941
7.02 979
7.04 1008
7.06 1032
7.08 1020
7.1 978
7.12 976
7.14 1038
7.16 991
7.18 1058
7.2 973
7.22 973
7.24 979
7.26 1046
7.28 1032
7.3 1016
7.32 998
7.34 945
7.36 968
7.38 1019
7.4 1042
7.42 990
7.44 1043
7.46 1065
7.48 967
7.5 980
7.52 991
7.54 999
7.56 1006
7.58 975
7.6 1016
7.62 966
7.64 960
7.66 966
7.68 987
7.7 990
7.72 962
7.74 990
7.76 1042
7.78 980
7.8 987
7.82 976
7.84 971
7.86 950
7.88 1008
7.9 972
7.92 958
7.94 948
7.96 965
7.98 1008
8 945
8.02 1018
8.04 994
8.06 972
8.08 1022
8.1 993
8.12 1029
8.14 979
8.16 987
8.18 1025
8.2 993
8.22 961
8.24 966
8.26 949
8.28 951
8.3 1005
8.32 990
8.34 971
8.36 989
8.38 998
8.4 1018
8.42 1007
8.44 974
8.46 993
8.48 967
8.5 963
8.52 949
8.54 983
8.56 1014
8.58 979
8.6 981
8.62 1025
8.64 998
8.66 993
8.68 1001
8.7 969
8.72 989
8.74 984
8.76 951
8.78 1001
8.8 1001
8.82 975
8.84 1046
8.86 1003
8.88 990
8.9 931
8.92 926
8.94 969
8.96 1021
8.98 920
9 983
9.02 963
9.04 1005
9.06 948
9.08 944
9.1 1010
9.12 993
9.14 1013
9.16 1031
9.18 954
9.2 954
9.22 1006
9.24 1027
9.26 966
9.28 992
9.3 976
9.32 1064
9.34 982
9.36 1001
9.38 989
9.4 994
9.42 1009
9.44 993
9.46 925
9.48 1000
9.5 1025
9.52 972
9.54 963
9.56 980
9.58 975
9.6 933
9.62 976
9.64 959
9.66 937
9.68 988
9.7 992
9.72 980
9.74 1032
9.76 932
9.78 964
9.8 984
9.82 992
9.84 936
9.86 987
9.88 989
9.9 960
9.92 954
9.94 964
9.96 970
9.98 948
10 926
10.02 966
10.04 1005
10.06 952
10.08 1004
10.1 1007
10.12 974
10.14 1015
10.16 948
10.18 997
10.2 973
10.22 931
10.24 963
10.26 1016
10.28 917
10.3 1016
10.32 936
10.34 987
10.36 970
10.38 977
10.4 950
10.42 1035
10.44 959
10.46 907
10.48 969
10.5 956
10.52 949
10.54 966
10.56 937
10.58 965
10.6 986
10.62 980
10.64 939
10.66 985
10.68 959
10.7 1025
10.72 984
10.74 981
10.76 931
10.78 989
10.8 914
10.82 943
10.84 993
10.86 914
10.88 988
10.9 957
10.92 997
10.94 1067
10.96 921
10.98 975
11 946
11.02 1020
11.04 960
11.06 972
11.08 1001
11.1 1007
11.12 1035
11.14 984
11.16 1011
11.18 1031
11.2 995
11.22 1041
11.24 965
11.26 952
11.28 974
11.3 1008
11.32 970
11.34 951
11.36 995
11.38 969
11.4 1016
11.42 1032
11.44 978
11.46 1003
11.48 1030
11.5 1002
11.52 948
11.54 978
11.56 1002
11.58 995
11.6 1061
11.62 1025
11.64 937
11.66 1040
11.68 985
11.7 941
11.72 994
11.74 939
11.76 1016
11.78 1000
11.8 971
11.82 995
11.84 992
11.86 998
11.88 1041
11.9 1007
11.92 1053
11.94 1004
11.96 1039
11.98 969
12 1077
12.02 1016
12.04 996
12.06 1049
12.08 985
12.1 1029
12.12 1007
12.14 978
12.16 1050
12.18 1048
12.2 1047
12.22 1013
12.24 1008
12.26 1043
12.28 1025
12.3 1004
12.32 1037
12.34 1012
12.36 1087
12.38 955
12.4 1030
12.42 997
12.44 982
12.46 1035
12.48 979
12.5 1051
12.52 1036
12.54 1042
12.56 1049
12.58 1034
12.6 1034
12.62 1018
12.64 1063
12.66 1088
12.68 1059
12.7 1088
12.72 1075
12.74 1078
12.76 1066
12.78 1050
12.8 1017
12.82 1076
12.84 1068
12.86 1073
12.88 1047
12.9 1055
12.92 1070
12.94 1064
12.96 1081
12.98 1068
13 1094
13.02 1060
13.04 1120
13.06 1101
13.08 1069
13.1 1071
13.12 1059
13.14 1080
13.16 1085
13.18 1146
13.2 1146
13.22 1189
13.24 1168
13.26 1211
13.28 1175
13.3 1206
13.32 1154
13.34 1130
13.36 1118
13.38 1068
13.4 1113
13.42 1120
13.44 1078
13.46 1076
13.48 1085
13.5 1090
13.52 1102
13.54 1055
13.56 1088
13.58 1022
13.6 1129
13.62 1007
13.64 1091
13.66 1111
13.68 1094
13.7 1134
13.72 1114
13.74 1071
13.76 1132
13.78 1144
13.8 1133
13.82 1109
13.84 1145
13.86 1100
13.88 1095
13.9 1110
13.92 1105
13.94 1157
13.96 1161
13.98 1105
14 1129
14.02 1167
14.04 1116
14.06 1136
14.08 1055
14.1 1066
14.12 1124
14.14 1142
14.16 1116
14.18 1135
14.2 1111
14.22 1152
14.24 1112
14.26 1156
14.28 1145
14.3 1172
14.32 1155
14.34 1084
14.36 1087
14.38 1159
14.4 1177
14.42 1230
14.44 1199
14.46 1149
14.48 1187
14.5 1127
14.52 1135
14.54 1143
14.56 1158
14.58 1156
14.6 1135
14.62 1144
14.64 1138
14.66 1171
14.68 1208
14.7 1125
14.72 1230
14.74 1197
14.76 1199
14.78 1149
14.8 1224
14.82 1222
14.84 1191
14.86 1169
14.88 1222
14.9 1184
14.92 1244
14.94 1238
14.96 1176
14.98 1219
15 1242
15.02 1184
15.04 1266
15.06 1192
15.08 1247
15.1 1289
15.12 1271
15.14 1210
15.16 1193
15.18 1287
15.2 1274
15.22 1245
15.24 1216
15.26 1261
15.28 1306
15.3 1299
15.32 1288
15.34 1295
15.36 1273
15.38 1349
15.4 1287
15.42 1315
15.44 1301
15.46 1305
15.48 1289
15.5 1330
15.52 1253
15.54 1301
15.56 1255
15.58 1315
15.6 1345
15.62 1308
15.64 1276
15.66 1333
15.68 1354
15.7 1292
15.72 1277
15.74 1335
15.76 1283
15.78 1354
15.8 1330
15.82 1358
15.84 1341
15.86 1365
15.88 1358
15.9 1343
15.92 1365
15.94 1366
15.96 1382
15.98 1380
16 1370
16.02 1367
16.04 1391
16.06 1420
16.08 1420
16.1 1372
16.12 1379
16.14 1443
16.16 1405
16.18 1388
16.2 1467
16.22 1384
16.24 1370
16.26 1480
16.28 1390
16.3 1511
16.32 1434
16.34 1485
16.36 1420
16.38 1541
16.4 1509
16.42 1525
16.44 1523
16.46 1477
16.48 1494
16.5 1508
16.52 1553
16.54 1524
16.56 1536
16.58 1554
16.6 1599
16.62 1638
16.64 1608
16.66 1653
16.68 1638
16.7 1713
16.72 1800
16.74 1898
16.76 2011
16.78 2053
16.8 2185
16.82 2363
16.84 2583
16.86 2779
16.88 3194
16.9 3577
16.92 4139
16.94 4968
16.96 5916
16.98 6898
17 7559
17.02 7467
17.04 6490
17.06 5205
17.08 3844
17.1 2757
17.12 2241
17.14 1913
17.16 1783
17.18 1861
17.2 1769
17.22 1744
17.24 1671
17.26 1689
17.28 1721
17.3 1722
17.32 1707
17.34 1698
17.36 1793
17.38 1695
17.4 1778
17.42 1668
17.44 1674
17.46 1683
17.48 1719
17.5 1745
17.52 1691
17.54 1779
17.56 1752
17.58 1742
17.6 1799
17.62 1794
17.64 1777
17.66 1704
17.68 1846
17.7 1803
17.72 1824
17.74 1783
17.76 1769
17.78 1801
17.8 1799
17.82 1715
17.84 1722
17.86 1811
17.88 1764
17.9 1843
17.92 1914
17.94 1885
17.96 1848
17.98 1845
18 1834
18.02 1876
18.04 1817
18.06 1838
18.08 1749
18.1 1921
18.12 1967
18.14 1888
18.16 1870
18.18 1909
18.2 1902
18.22 1959
18.24 1896
18.26 1809
18.28 1940
18.3 1975
18.32 1923
18.34 1933
18.36 1920
18.38 1973
18.4 2002
18.42 1906
18.44 1970
18.46 2003
18.48 1992
18.5 1888
18.52 2035
18.54 2004
18.56 2065
18.58 1968
18.6 2024
18.62 2011
18.64 2073
18.66 2005
18.68 2010
18.7 2001
18.72 2094
18.74 2069
18.76 2003
18.78 2016
18.8 2106
18.82 2118
18.84 1997
18.86 2174
18.88 2056
18.9 2066
18.92 2045
18.94 2091
18.96 2172
18.98 2028
19 2108
19.02 2187
19.04 2104
19.06 2161
19.08 2097
19.1 2141
19.12 2236
19.14 2119
19.16 2088
19.18 2175
19.2 2233
19.22 2178
19.24 2232
19.26 2146
19.28 2144
19.3 2168
19.32 2295
19.34 2227
19.36 2221
19.38 2239
19.4 2239
19.42 2222
19.44 2195
19.46 2267
19.48 2286
19.5 2235
19.52 2224
19.54 2278
19.56 2277
19.58 2270
19.6 2229
19.62 2282
19.64 2274
19.66 2296
19.68 2296
19.7 2295
19.72 2359
19.74 2293
19.76 2362
19.78 2438
19.8 2314
19.82 2308
19.84 2282
19.86 2332
19.88 2388
19.9 2355
19.92 2344
19.94 2436
19.96 2381
19.98 2352
20 2362
20.02 2274
20.04 2311
20.06 2385
20.08 2292
20.1 2351
20.12 2374
20.14 2398
20.16 2322
20.18 2452
20.2 2377
20.22 2374
20.24 2397
20.26 2467
20.28 2387
20.3 2312
20.32 2410
20.34 2381
20.36 2401
20.38 2464
20.4 2341
20.42 2417
20.44 2458
20.46 2396
20.48 2489
20.5 2421
20.52 2404
20.54 2442
20.56 2409
20.58 2374
20.6 2388
20.62 2396
20.64 2384
20.66 2421
20.68 2521
20.7 2417
20.72 2477
20.74 2454
20.76 2475
20.78 2441
20.8 2442
20.82 2495
20.84 2509
20.86 2569
20.88 2451
20.9 2481
20.92 2460
20.94 2487
20.96 2392
20.98 2532
21 2449
21.02 2486
21.04 2513
21.06 2495
21.08 2447
21.1 2506
21.12 2480
21.14 2490
21.16 2521
21.18 2434
21.2 2476
21.22 2372
21.24 2425
21.26 2525
21.28 2474
21.3 2471
21.32 2500
21.34 2427
21.36 2395
21.38 2467
21.4 2414
21.42 2455
21.44 2395
21.46 2433
21.48 2366
21.5 2480
21.52 2430
21.54 2444
21.56 2398
21.58 2373
21.6 2448
21.62 2447
21.64 2448
21.66 2484
21.68 2489
21.7 2425
21.72 2417
21.74 2524
21.76 2476
21.78 2449
21.8 2427
21.82 2424
21.84 2437
21.86 2407
21.88 2478
21.9 2348
21.92 2411
21.94 2449
21.96 2349
21.98 2459
22 2419
22.02 2409
22.04 2370
22.06 2385
22.08 2404
22.1 2476
22.12 2435
22.14 2358
22.16 2458
22.18 2426
22.2 2402
22.22 2356
22.24 2401
22.26 2443
22.28 2381
22.3 2356
22.32 2391
22.34 2399
22.36 2343
22.38 2293
22.4 2448
22.42 2364
22.44 2394
22.46 2384
22.48 2410
22.5 2285
22.52 2334
22.54 2369
22.56 2372
22.58 2370
22.6 2409
22.62 2344
22.64 2399
22.66 2308
22.68 2343
22.7 2346
22.72 2324
22.74 2261
22.76 2332
22.78 2317
22.8 2359
22.82 2329
22.84 2301
22.86 2348
22.88 2292
22.9 2282
22.92 2340
22.94 2271
22.96 2236
22.98 2333
23 2320
23.02 2313
23.04 2271
23.06 2354
23.08 2228
23.1 2307
23.12 2275
23.14 2321
23.16 2295
23.18 2373
23.2 2181
23.22 2307
23.24 2267
23.26 2192
23.28 2145
23.3 2288
23.32 2277
23.34 2225
23.36 2255
23.38 2322
23.4 2316
23.42 2294
23.44 2234
23.46 2181
23.48 2324
23.5 2260
23.52 2193
23.54 2185
23.56 2180
23.58 2241
23.6 2176
23.62 2191
23.64 2199
23.66 2188
23.68 2223
23.7 2129
23.72 2129
23.74 2143
23.76 2014
23.78 2129
23.8 2190
23.82 2152
23.84 2168
23.86 2106
23.88 2116
23.9 2167
23.92 2209
23.94 2142
23.96 2086
23.98 2156
24 2143
24.02 2093
24.04 2107
24.06 2238
24.08 2154
24.1 2102
24.12 2063
24.14 2135
24.16 2144
24.18 2157
24.2 2168
24.22 2161
24.24 2163
24.26 2121
24.28 2227
24.3 2290
24.32 2329
24.34 2372
24.36 2322
24.38 2565
24.4 2576
24.42 2609
24.44 2783
24.46 2909
24.48 3053
24.5 3094
24.52 3231
24.54 3234
24.56 3273
24.58 3129
24.6 2900
24.62 2803
24.64 2657
24.66 2552
24.68 2483
24.7 2313
24.72 2232
24.74 2175
24.76 2118
24.78 2203
24.8 2180
24.82 2049
24.84 1990
24.86 2044
24.88 2012
24.9 2054
24.92 2049
24.94 2030
24.96 2069
24.98 2047
25 2082
25.02 2107
25.04 2135
25.06 2224
25.08 2211
25.1 2355
25.12 2452
25.14 2483
25.16 2756
25.18 3085
25.2 3385
25.22 3944
25.24 4485
25.26 4820
25.28 5056
25.3 5046
25.32 4761
25.34 4354
25.36 3800
25.38 3292
25.4 2850
25.42 2528
25.44 2317
25.46 2171
25.48 2044
25.5 1973
25.52 2048
25.54 1937
25.56 1922
25.58 1879
25.6 1806
25.62 1878
25.64 1880
25.66 1872
25.68 1809
25.7 1887
25.72 1826
25.74 1793
25.76 1749
25.78 1786
25.8 1804
25.82 1774
25.84 1884
25.86 1838
25.88 1834
25.9 1784
25.92 1793
25.94 1744
25.96 1764
25.98 1811
26 1824
26.02 1732
26.04 1682
26.06 1816
26.08 1760
26.1 1774
26.12 1815
26.14 1674
26.16 1765
26.18 1695
26.2 1700
26.22 1778
26.24 1707
26.26 1692
26.28 1764
26.3 1730
26.32 1769
26.34 1802
26.36 1740
26.38 1775
26.4 1770
26.42 1774
26.44 1800
26.46 1822
26.48 1819
26.5 1821
26.52 1811
26.54 1857
26.56 1861
26.58 2056
26.6 2076
26.62 2168
26.64 2240
26.66 2275
26.68 2283
26.7 2319
26.72 2459
26.74 2494
26.76 2615
26.78 2821
26.8 3038
26.82 3197
26.84 3548
26.86 3794
26.88 4016
26.9 4075
26.92 3784
26.94 3638
26.96 3297
26.98 3005
27 2778
27.02 2461
27.04 2235
27.06 2024
27.08 1919
27.1 1883
27.12 1772
27.14 1778
27.16 1662
27.18 1599
27.2 1701
27.22 1602
27.24 1580
27.26 1627
27.28 1614
27.3 1686
27.32 1592
27.34 1594
27.36 1573
27.38 1598
27.4 1550
27.42 1577
27.44 1632
27.46 1578
27.48 1554
27.5 1538
27.52 1587
27.54 1601
27.56 1574
27.58 1624
27.6 1580
27.62 1562
27.64 1537
27.66 1554
27.68 1566
27.7 1531
27.72 1578
27.74 1526
27.76 1570
27.78 1556
27.8 1552
27.82 1496
27.84 1507
27.86 1533
27.88 1509
27.9 1572
27.92 1522
27.94 1528
27.96 1491
27.98 1548
28 1554
28.02 1476
28.04 1528
28.06 1526
28.08 1597
28.1 1657
28.12 1648
28.14 1622
28.16 1673
28.18 1632
28.2 1650
28.22 1574
28.24 1574
28.26 1509
28.28 1495
28.3 1524
28.32 1474
28.34 1495
28.36 1475
28.38 1445
28.4 1395
28.42 1485
28.44 1516
28.46 1433
28.48 1500
28.5 1489
28.52 1507
28.54 1502
28.56 1556
28.58 1501
28.6 1525
28.62 1574
28.64 1573
28.66 1509
28.68 1567
28.7 1470
28.72 1500
28.74 1378
28.76 1467
28.78 1466
28.8 1397
28.82 1425
28.84 1480
28.86 1406
28.88 1475
28.9 1423
28.92 1456
28.94 1485
28.96 1464
28.98 1463
29 1470
29.02 1503
29.04 1538
29.06 1598
29.08 1626
29.1 1683
29.12 1655
29.14 1691
29.16 1793
29.18 1798
29.2 1819
29.22 1824
29.24 1953
29.26 1921
29.28 1798
29.3 1730
29.32 1724
29.34 1645
29.36 1578
29.38 1531
29.4 1526
29.42 1427
29.44 1437
29.46 1402
29.48 1384
29.5 1370
29.52 1362
29.54 1389
29.56 1287
29.58 1345
29.6 1375
29.62 1344
29.64 1312
29.66 1281
29.68 1274
29.7 1277
29.72 1310
29.74 1293
29.76 1289
29.78 1352
29.8 1321
29.82 1304
29.84 1353
29.86 1285
29.88 1280
29.9 1282
29.92 1249
29.94 1250
29.96 1361
29.98 1329
30 1294