File: xrd-UiO-67/pxrddata/5-16.ASC
3 1983
3.02 1937
3.04 1818
3.06 1755
3.08 1638
3.1 1622
3.12 1567
3.14 1509
3.16 1535
3.18 1487
3.2 1483
3.22 1432
3.24 1433
3.26 1427
3.28 1395
3.3 1386
3.32 1368
3.34 1364
3.36 1365
3.38 1345
3.4 1288
3.42 1363
3.44 1289
3.46 1292
3.48 1285
3.5 1260
3.52 1301
3.54 1245
3.56 1178
3.58 1249
3.6 1222
3.62 1219
3.64 1162
3.66 1177
3.68 1178
3.7 1166
3.72 1108
3.74 1161
3.76 1160
3.78 1165
3.8 1089
3.82 1129
3.84 1045
3.86 1020
3.88 1047
3.9 1067
3.92 1005
3.94 1015
3.96 1031
3.98 1026
4 1038
4.02 986
4.04 1041
4.06 946
4.08 923
4.1 953
4.12 929
4.14 956
4.16 965
4.18 860
4.2 878
4.22 946
4.24 920
4.26 872
4.28 908
4.3 906
4.32 865
4.34 872
4.36 867
4.38 862
4.4 845
4.42 872
4.44 831
4.46 802
4.48 853
4.5 863
4.52 845
4.54 826
4.56 828
4.58 796
4.6 764
4.62 785
4.64 791
4.66 807
4.68 758
4.7 799
4.72 805
4.74 804
4.76 775
4.78 790
4.8 756
4.82 776
4.84 759
4.86 785
4.88 739
4.9 808
4.92 751
4.94 764
4.96 670
4.98 747
5 766
5.02 706
5.04 705
5.06 747
5.08 783
5.1 734
5.12 693
5.14 732
5.16 715
5.18 679
5.2 719
5.22 748
5.24 718
5.26 697
5.28 737
5.3 702
5.32 719
5.34 688
5.36 684
5.38 731
5.4 681
5.42 683
5.44 726
5.46 732
5.48 675
5.5 721
5.52 691
5.54 670
5.56 701
5.58 706
5.6 699
5.62 698
5.64 678
5.66 692
5.68 671
5.7 660
5.72 718
5.74 721
5.76 696
5.78 679
5.8 709
5.82 690
5.84 714
5.86 711
5.88 712
5.9 693
5.92 726
5.94 708
5.96 721
5.98 750
6 693
6.02 761
6.04 725
6.06 666
6.08 744
6.1 682
6.12 704
6.14 671
6.16 702
6.18 708
6.2 709
6.22 699
6.24 700
6.26 728
6.28 653
6.3 672
6.32 677
6.34 675
6.36 679
6.38 673
6.4 693
6.42 679
6.44 751
6.46 716
6.48 695
6.5 659
6.52 663
6.54 744
6.56 728
6.58 699
6.6 723
6.62 713
6.64 726
6.66 682
6.68 674
6.7 709
6.72 759
6.74 708
6.76 704
6.78 738
6.8 737
6.82 711
6.84 768
6.86 728
6.88 688
6.9 747
6.92 700
6.94 737
6.96 714
6.98 726
7 704
7.02 732
7.04 655
7.06 728
7.08 712
7.1 702
7.12 664
7.14 719
7.16 719
7.18 707
7.2 750
7.22 742
7.24 730
7.26 694
7.28 755
7.3 722
7.32 672
7.34 742
7.36 697
7.38 695
7.4 710
7.42 766
7.44 739
7.46 730
7.48 685
7.5 770
7.52 792
7.54 708
7.56 717
7.58 760
7.6 744
7.62 750
7.64 734
7.66 726
7.68 713
7.7 754
7.72 718
7.74 722
7.76 726
7.78 740
7.8 754
7.82 724
7.84 784
7.86 757
7.88 767
7.9 837
7.92 747
7.94 783
7.96 762
7.98 790
8 802
8.02 793
8.04 811
8.06 797
8.08 806
8.1 841
8.12 883
8.14 849
8.16 872
8.18 800
8.2 822
8.22 813
8.24 878
8.26 830
8.28 852
8.3 901
8.32 916
8.34 894
8.36 950
8.38 948
8.4 1051
8.42 964
8.44 1036
8.46 1116
8.48 1143
8.5 1273
8.52 1276
8.54 1378
8.56 1468
8.58 1543
8.6 1646
8.62 1822
8.64 1828
8.66 2065
8.68 2268
8.7 2493
8.72 2715
8.74 2960
8.76 3393
8.78 3830
8.8 4573
8.82 5836
8.84 6809
8.86 7394
8.88 6714
8.9 5386
8.92 4449
8.94 4031
8.96 4311
8.98 4979
9 5855
9.02 5840
9.04 4398
9.06 2845
9.08 1742
9.1 1291
9.12 1210
9.14 1102
9.16 1050
9.18 976
9.2 1034
9.22 1010
9.24 970
9.26 1005
9.28 962
9.3 987
9.32 976
9.34 1020
9.36 949
9.38 1028
9.4 1026
9.42 1031
9.44 1095
9.46 1038
9.48 1061
9.5 1064
9.52 1120
9.54 1121
9.56 1221
9.58 1209
9.6 1283
9.62 1341
9.64 1470
9.66 1549
9.68 1623
9.7 1727
9.72 1895
9.74 2011
9.76 2188
9.78 2388
9.8 2708
9.82 3080
9.84 3521
9.86 4345
9.88 5377
9.9 6513
9.92 7354
9.94 6476
9.96 4687
9.98 3092
10 2019
10.02 1502
10.04 1248
10.06 1169
10.08 1097
10.1 1025
10.12 1017
10.14 984
10.16 944
10.18 942
10.2 885
10.22 905
10.24 889
10.26 852
10.28 898
10.3 899
10.32 901
10.34 901
10.36 817
10.38 888
10.4 908
10.42 800
10.44 811
10.46 874
10.48 840
10.5 845
10.52 784
10.54 849
10.56 824
10.58 839
10.6 877
10.62 824
10.64 837
10.66 804
10.68 829
10.7 798
10.72 823
10.74 789
10.76 826
10.78 785
10.8 782
10.82 770
10.84 756
10.86 802
10.88 863
10.9 814
10.92 796
10.94 818
10.96 805
10.98 789
11 768
11.02 831
11.04 820
11.06 754
11.08 779
11.1 838
11.12 769
11.14 793
11.16 843
11.18 846
11.2 819
11.22 831
11.24 824
11.26 814
11.28 780
11.3 788
11.32 801
11.34 815
11.36 845
11.38 846
11.4 826
11.42 779
11.44 830
11.46 782
11.48 787
11.5 790
11.52 848
11.54 802
11.56 817
11.58 787
11.6 824
11.62 804
11.64 857
11.66 823
11.68 778
11.7 819
11.72 776
11.74 801
11.76 785
11.78 789
11.8 789
11.82 772
11.84 826
11.86 824
11.88 842
11.9 793
11.92 823
11.94 806
11.96 830
11.98 832
12 803
12.02 807
12.04 833
12.06 841
12.08 916
12.1 904
12.12 847
12.14 862
12.16 829
12.18 862
12.2 832
12.22 889
12.24 873
12.26 905
12.28 844
12.3 938
12.32 921
12.34 921
12.36 965
12.38 982
12.4 1079
12.42 1095
12.44 1102
12.46 1155
12.48 1188
12.5 1296
12.52 1421
12.54 1553
12.56 1672
12.58 1858
12.6 2101
12.62 2083
12.64 1867
12.66 1730
12.68 1474
12.7 1261
12.72 1172
12.74 1097
12.76 973
12.78 1018
12.8 993
12.82 994
12.84 935
12.86 932
12.88 975
12.9 949
12.92 972
12.94 923
12.96 913
12.98 909
13 987
13.02 1004
13.04 980
13.06 1037
13.08 1037
13.1 1063
13.12 1095
13.14 1160
13.16 1201
13.18 1305
13.2 1395
13.22 1455
13.24 1512
13.26 1727
13.28 1874
13.3 2169
13.32 2358
13.34 2967
13.36 3457
13.38 3763
13.4 3488
13.42 2992
13.44 2313
13.46 1664
13.48 1320
13.5 1152
13.52 1076
13.54 1020
13.56 981
13.58 1001
13.6 940
13.62 962
13.64 952
13.66 1032
13.68 924
13.7 932
13.72 949
13.74 934
13.76 906
13.78 919
13.8 973
13.82 947
13.84 951
13.86 906
13.88 936
13.9 860
13.92 929
13.94 947
13.96 968
13.98 913
14 922
14.02 968
14.04 977
14.06 964
14.08 894
14.1 963
14.12 928
14.14 986
14.16 945
14.18 921
14.2 941
14.22 966
14.24 909
14.26 942
14.28 941
14.3 1011
14.32 952
14.34 958
14.36 929
14.38 932
14.4 899
14.42 963
14.44 949
14.46 1015
14.48 971
14.5 990
14.52 1018
14.54 957
14.56 939
14.58 1005
14.6 982
14.62 1007
14.64 1069
14.66 935
14.68 986
14.7 988
14.72 1033
14.74 1002
14.76 1065
14.78 1029
14.8 1013
14.82 973
14.84 936
14.86 960
14.88 1059
14.9 974
14.92 1035
14.94 1032
14.96 1023
14.98 1041
15 996
15.02 1032
15.04 1053
15.06 1031
15.08 1058
15.1 1057
15.12 1028
15.14 1018
15.16 997
15.18 995
15.2 1022
15.22 1041
15.24 1060
15.26 1107
15.28 1059
15.3 1079
15.32 1034
15.34 1040
15.36 1072
15.38 1095
15.4 1057
15.42 1039
15.44 1035
15.46 1057
15.48 1066
15.5 1132
15.52 1076
15.54 1079
15.56 1067
15.58 1039
15.6 1078
15.62 1032
15.64 1112
15.66 1042
15.68 1046
15.7 1097
15.72 1060
15.74 1016
15.76 1077
15.78 1061
15.8 1069
15.82 1089
15.84 1115
15.86 1165
15.88 1040
15.9 1132
15.92 1125
15.94 1074
15.96 1134
15.98 1121
16 1138
16.02 1157
16.04 1067
16.06 1117
16.08 1155
16.1 1106
16.12 1102
16.14 1139
16.16 1149
16.18 1123
16.2 1153
16.22 1204
16.24 1186
16.26 1098
16.28 1148
16.3 1239
16.32 1176
16.34 1189
16.36 1113
16.38 1209
16.4 1211
16.42 1171
16.44 1149
16.46 1248
16.48 1259
16.5 1217
16.52 1222
16.54 1226
16.56 1177
16.58 1238
16.6 1277
16.62 1273
16.64 1301
16.66 1280
16.68 1293
16.7 1287
16.72 1294
16.74 1349
16.76 1375
16.78 1431
16.8 1478
16.82 1476
16.84 1477
16.86 1597
16.88 1661
16.9 1810
16.92 1986
16.94 2077
16.96 2404
16.98 2894
17 3230
17.02 3314
17.04 3155
17.06 2601
17.08 2067
17.1 1738
17.12 1437
17.14 1402
17.16 1458
17.18 1292
17.2 1328
17.22 1356
17.24 1356
17.26 1321
17.28 1396
17.3 1288
17.32 1370
17.34 1320
17.36 1352
17.38 1336
17.4 1367
17.42 1425
17.44 1349
17.46 1363
17.48 1382
17.5 1394
17.52 1423
17.54 1402
17.56 1456
17.58 1441
17.6 1443
17.62 1429
17.64 1490
17.66 1570
17.68 1617
17.7 1582
17.72 1543
17.74 1612
17.76 1490
17.78 1499
17.8 1554
17.82 1507
17.84 1450
17.86 1478
17.88 1424
17.9 1442
17.92 1489
17.94 1428
17.96 1457
17.98 1520
18 1589
18.02 1578
18.04 1510
18.06 1503
18.08 1521
18.1 1521
18.12 1528
18.14 1507
18.16 1550
18.18 1592
18.2 1607
18.22 1633
18.24 1608
18.26 1681
18.28 1696
18.3 1659
18.32 1633
18.34 1664
18.36 1685
18.38 1715
18.4 1663
18.42 1510
18.44 1634
18.46 1626
18.48 1555
18.5 1544
18.52 1596
18.54 1552
18.56 1583
18.58 1610
18.6 1580
18.62 1596
18.64 1660
18.66 1516
18.68 1553
18.7 1525
18.72 1628
18.74 1640
18.76 1574
18.78 1583
18.8 1531
18.82 1591
18.84 1571
18.86 1620
18.88 1616
18.9 1628
18.92 1531
18.94 1608
18.96 1606
18.98 1613
19 1655
19.02 1598
19.04 1682
19.06 1646
19.08 1693
19.1 1648
19.12 1660
19.14 1666
19.16 1631
19.18 1638
19.2 1659
19.22 1644
19.24 1587
19.26 1657
19.28 1729
19.3 1634
19.32 1683
19.34 1626
19.36 1694
19.38 1688
19.4 1689
19.42 1712
19.44 1791
19.46 1761
19.48 1675
19.5 1731
19.52 1790
19.54 1670
19.56 1722
19.58 1745
19.6 1796
19.62 1735
19.64 1806
19.66 1843
19.68 1838
19.7 1881
19.72 1977
19.74 2041
19.76 2136
19.78 2237
19.8 2471
19.82 2692
19.84 2925
19.86 2862
19.88 2631
19.9 2530
19.92 2411
19.94 2272
19.96 2237
19.98 2266
20 2373
20.02 2548
20.04 2677
20.06 2693
20.08 2724
20.1 2573
20.12 2487
20.14 2257
20.16 2178
20.18 2049
20.2 1963
20.22 1892
20.24 1868
20.26 1936
20.28 1971
20.3 1955
20.32 1892
20.34 1977
20.36 1919
20.38 1870
20.4 1909
20.42 1840
20.44 1828
20.46 1887
20.48 1781
20.5 1830
20.52 1849
20.54 1856
20.56 1808
20.58 1927
20.6 1878
20.62 1830
20.64 1841
20.66 1839
20.68 1857
20.7 1794
20.72 1755
20.74 1766
20.76 1811
20.78 1849
20.8 1876
20.82 1828
20.84 1896
20.86 1820
20.88 1831
20.9 1919
20.92 1859
20.94 1890
20.96 1967
20.98 1874
21 1854
21.02 1797
21.04 1833
21.06 1871
21.08 1754
21.1 1900
21.12 1851
21.14 1840
21.16 1836
21.18 1885
21.2 1881
21.22 1831
21.24 1830
21.26 1784
21.28 1920
21.3 1894
21.32 1876
21.34 1734
21.36 1792
21.38 1867
21.4 1818
21.42 1823
21.44 1846
21.46 1878
21.48 1836
21.5 1869
21.52 1843
21.54 1810
21.56 1903
21.58 1815
21.6 1899
21.62 1817
21.64 1758
21.66 1835
21.68 1885
21.7 1842
21.72 1863
21.74 1903
21.76 1808
21.78 1926
21.8 1813
21.82 1907
21.84 1836
21.86 1866
21.88 1882
21.9 1767
21.92 1803
21.94 1863
21.96 1891
21.98 1820
22 1817
22.02 1828
22.04 1883
22.06 1873
22.08 1882
22.1 1882
22.12 1817
22.14 1824
22.16 1853
22.18 1872
22.2 1921
22.22 1906
22.24 2059
22.26 2088
22.28 2070
22.3 2110
22.32 2081
22.34 1995
22.36 1916
22.38 1907
22.4 2016
22.42 1878
22.44 1834
22.46 1852
22.48 1781
22.5 1743
22.52 1804
22.54 1822
22.56 1839
22.58 1813
22.6 1783
22.62 1777
22.64 1837
22.66 1739
22.68 1740
22.7 1802
22.72 1804
22.74 1809
22.76 1771
22.78 1752
22.8 1714
22.82 1755
22.84 1729
22.86 1754
22.88 1795
22.9 1684
22.92 1714
22.94 1701
22.96 1768
22.98 1729
23 1761
23.02 1729
23.04 1669
23.06 1628
23.08 1686
23.1 1677
23.12 1730
23.14 1700
23.16 1645
23.18 1663
23.2 1664
23.22 1743
23.24 1709
23.26 1639
23.28 1647
23.3 1701
23.32 1693
23.34 1675
23.36 1649
23.38 1739
23.4 1579
23.42 1665
23.44 1678
23.46 1665
23.48 1748
23.5 1692
23.52 1633
23.54 1637
23.56 1630
23.58 1591
23.6 1592
23.62 1621
23.64 1715
23.66 1634
23.68 1632
23.7 1667
23.72 1642
23.74 1601
23.76 1652
23.78 1633
23.8 1632
23.82 1678
23.84 1715
23.86 1756
23.88 1745
23.9 1726
23.92 1715
23.94 1820
23.96 1865
23.98 2000
24 2123
24.02 2126
24.04 2204
24.06 2238
24.08 2282
24.1 2192
24.12 2219
24.14 2184
24.16 1976
24.18 1892
24.2 1871
24.22 1807
24.24 1801
24.26 1746
24.28 1811
24.3 1850
24.32 1827
24.34 1806
24.36 1802
24.38 1809
24.4 1844
24.42 1772
24.44 1910
24.46 1930
24.48 1943
24.5 2007
24.52 2036
24.54 2045
24.56 1981
24.58 1907
24.6 1929
24.62 1866
24.64 1801
24.66 1808
24.68 1725
24.7 1629
24.72 1622
24.74 1592
24.76 1577
24.78 1592
24.8 1556
24.82 1610
24.84 1579
24.86 1595
24.88 1555
24.9 1558
24.92 1593
24.94 1615
24.96 1635
24.98 1664
25 1766
25.02 1784
25.04 2006
25.06 2087
25.08 2313
25.1 2531
25.12 2717
25.14 2770
25.16 2865
25.18 2946
25.2 2936
25.22 3104
25.24 3250
25.26 3508
25.28 3865
25.3 4032
25.32 4295
25.34 4220
25.36 3795
25.38 3504
25.4 3123
25.42 2585
25.44 2342
25.46 2028
25.48 1931
25.5 1887
25.52 1837
25.54 1839
25.56 1775
25.58 1721
25.6 1689
25.62 1636
25.64 1604
25.66 1629
25.68 1554
25.7 1533
25.72 1509
25.74 1514
25.76 1552
25.78 1491
25.8 1443
25.82 1403
25.84 1424
25.86 1407
25.88 1466
25.9 1440
25.92 1442
25.94 1376
25.96 1420
25.98 1462
26 1454
26.02 1334
26.04 1387
26.06 1372
26.08 1377
26.1 1290
26.12 1420
26.14 1431
26.16 1379
26.18 1401
26.2 1377
26.22 1363
26.24 1352
26.26 1308
26.28 1367
26.3 1338
26.32 1382
26.34 1334
26.36 1429
26.38 1337
26.4 1350
26.42 1406
26.44 1500
26.46 1514
26.48 1450
26.5 1509
26.52 1621
26.54 1592
26.56 1741
26.58 1842
26.6 2013
26.62 2168
26.64 2238
26.66 2424
26.68 2511
26.7 2500
26.72 2615
26.74 2481
26.76 2591
26.78 2597
26.8 2503
26.82 2541
26.84 2589
26.86 2595
26.88 2792
26.9 2796
26.92 2647
26.94 2615
26.96 2664
26.98 2586
27 2596
27.02 2743
27.04 2918
27.06 3107
27.08 3313
27.1 3296
27.12 3079
27.14 2759
27.16 2363
27.18 2161
27.2 1890
27.22 1591
27.24 1532
27.26 1469
27.28 1427
27.3 1477
27.32 1452
27.34 1350
27.36 1413
27.38 1368
27.4 1412
27.42 1412
27.44 1441
27.46 1433
27.48 1451
27.5 1458
27.52 1366
27.54 1422
27.56 1396
27.58 1372
27.6 1353
27.62 1351
27.64 1365
27.66 1359
27.68 1365
27.7 1353
27.72 1373
27.74 1304
27.76 1339
27.78 1324
27.8 1286
27.82 1294
27.84 1322
27.86 1267
27.88 1204
27.9 1273
27.92 1213
27.94 1247
27.96 1231
27.98 1260
28 1211
28.02 1227
28.04 1244
28.06 1231
28.08 1273
28.1 1350
28.12 1387
28.14 1338
28.16 1362
28.18 1341
28.2 1392
28.22 1274
28.24 1287
28.26 1268
28.28 1285
28.3 1247
28.32 1267
28.34 1254
28.36 1242
28.38 1264
28.4 1319
28.42 1459
28.44 1430
28.46 1493
28.48 1557
28.5 1726
28.52 1828
28.54 1949
28.56 1900
28.58 1893
28.6 1782
28.62 1717
28.64 1574
28.66 1497
28.68 1392
28.7 1292
28.72 1253
28.74 1171
28.76 1263
28.78 1172
28.8 1172
28.82 1226
28.84 1177
28.86 1219
28.88 1159
28.9 1181
28.92 1242
28.94 1174
28.96 1250
28.98 1140
29 1163
29.02 1131
29.04 1173
29.06 1173
29.08 1159
29.1 1244
29.12 1223
29.14 1268
29.16 1319
29.18 1315
29.2 1291
29.22 1213
29.24 1279
29.26 1288
29.28 1250
29.3 1239
29.32 1224
29.34 1148
29.36 1187
29.38 1149
29.4 1118
29.42 1110
29.44 1096
29.46 1103
29.48 1119
29.5 1134
29.52 1081
29.54 1091
29.56 1147
29.58 1069
29.6 1102
29.62 1138
29.64 1130
29.66 1074
29.68 1131
29.7 1158
29.72 1217
29.74 1193
29.76 1210
29.78 1289
29.8 1298
29.82 1441
29.84 1585
29.86 1882
29.88 2138
29.9 2422
29.92 2424
29.94 2497
29.96 2352
29.98 2399
30 2199