File: xrd-UiO-67/pxrddata/5-20.ASC
3 2166
3.02 2108
3.04 1873
3.06 1799
3.08 1731
3.1 1678
3.12 1716
3.14 1642
3.16 1608
3.18 1588
3.2 1550
3.22 1524
3.24 1483
3.26 1495
3.28 1568
3.3 1453
3.32 1468
3.34 1453
3.36 1504
3.38 1379
3.4 1354
3.42 1360
3.44 1382
3.46 1416
3.48 1357
3.5 1374
3.52 1274
3.54 1318
3.56 1233
3.58 1235
3.6 1277
3.62 1195
3.64 1231
3.66 1210
3.68 1280
3.7 1247
3.72 1241
3.74 1208
3.76 1140
3.78 1142
3.8 1171
3.82 1092
3.84 1145
3.86 1142
3.88 1127
3.9 1082
3.92 1083
3.94 1055
3.96 1071
3.98 1045
4 1033
4.02 1044
4.04 1022
4.06 1000
4.08 1043
4.1 1051
4.12 1012
4.14 1010
4.16 934
4.18 951
4.2 979
4.22 938
4.24 888
4.26 917
4.28 897
4.3 911
4.32 918
4.34 877
4.36 851
4.38 878
4.4 825
4.42 855
4.44 883
4.46 837
4.48 809
4.5 823
4.52 799
4.54 846
4.56 825
4.58 846
4.6 824
4.62 822
4.64 778
4.66 786
4.68 776
4.7 749
4.72 790
4.74 755
4.76 770
4.78 713
4.8 793
4.82 773
4.84 729
4.86 715
4.88 719
4.9 735
4.92 721
4.94 691
4.96 740
4.98 684
5 751
5.02 713
5.04 722
5.06 731
5.08 724
5.1 741
5.12 694
5.14 754
5.16 717
5.18 697
5.2 671
5.22 722
5.24 684
5.26 715
5.28 732
5.3 702
5.32 710
5.34 722
5.36 687
5.38 696
5.4 709
5.42 717
5.44 761
5.46 713
5.48 720
5.5 726
5.52 700
5.54 665
5.56 658
5.58 686
5.6 726
5.62 726
5.64 736
5.66 727
5.68 743
5.7 715
5.72 703
5.74 703
5.76 680
5.78 749
5.8 718
5.82 722
5.84 699
5.86 699
5.88 657
5.9 705
5.92 722
5.94 714
5.96 661
5.98 640
6 702
6.02 713
6.04 721
6.06 677
6.08 730
6.1 743
6.12 689
6.14 718
6.16 715
6.18 738
6.2 772
6.22 751
6.24 706
6.26 728
6.28 720
6.3 720
6.32 715
6.34 753
6.36 720
6.38 713
6.4 692
6.42 727
6.44 743
6.46 723
6.48 762
6.5 740
6.52 769
6.54 742
6.56 697
6.58 749
6.6 729
6.62 775
6.64 729
6.66 734
6.68 722
6.7 729
6.72 781
6.74 716
6.76 728
6.78 732
6.8 738
6.82 789
6.84 748
6.86 757
6.88 746
6.9 740
6.92 724
6.94 784
6.96 745
6.98 752
7 733
7.02 777
7.04 740
7.06 798
7.08 780
7.1 743
7.12 750
7.14 781
7.16 797
7.18 756
7.2 770
7.22 776
7.24 719
7.26 750
7.28 794
7.3 732
7.32 683
7.34 785
7.36 738
7.38 773
7.4 732
7.42 715
7.44 706
7.46 752
7.48 752
7.5 762
7.52 808
7.54 715
7.56 722
7.58 725
7.6 765
7.62 680
7.64 750
7.66 699
7.68 722
7.7 729
7.72 744
7.74 757
7.76 729
7.78 741
7.8 686
7.82 674
7.84 716
7.86 687
7.88 712
7.9 662
7.92 678
7.94 684
7.96 665
7.98 670
8 687
8.02 690
8.04 653
8.06 721
8.08 693
8.1 662
8.12 688
8.14 689
8.16 677
8.18 684
8.2 631
8.22 657
8.24 670
8.26 690
8.28 669
8.3 671
8.32 680
8.34 641
8.36 652
8.38 636
8.4 602
8.42 632
8.44 640
8.46 608
8.48 639
8.5 666
8.52 671
8.54 605
8.56 595
8.58 611
8.6 611
8.62 632
8.64 632
8.66 596
8.68 614
8.7 605
8.72 546
8.74 606
8.76 615
8.78 606
8.8 595
8.82 621
8.84 576
8.86 585
8.88 596
8.9 611
8.92 584
8.94 607
8.96 601
8.98 528
9 596
9.02 561
9.04 590
9.06 565
9.08 590
9.1 568
9.12 603
9.14 580
9.16 599
9.18 541
9.2 607
9.22 575
9.24 558
9.26 561
9.28 541
9.3 550
9.32 561
9.34 580
9.36 579
9.38 554
9.4 588
9.42 577
9.44 587
9.46 550
9.48 545
9.5 553
9.52 580
9.54 554
9.56 557
9.58 541
9.6 556
9.62 542
9.64 545
9.66 504
9.68 499
9.7 552
9.72 538
9.74 539
9.76 494
9.78 545
9.8 596
9.82 553
9.84 526
9.86 537
9.88 531
9.9 560
9.92 559
9.94 589
9.96 506
9.98 519
10 524
10.02 525
10.04 506
10.06 497
10.08 518
10.1 521
10.12 605
10.14 504
10.16 540
10.18 547
10.2 499
10.22 511
10.24 518
10.26 521
10.28 513
10.3 518
10.32 527
10.34 530
10.36 554
10.38 539
10.4 554
10.42 509
10.44 478
10.46 518
10.48 543
10.5 526
10.52 557
10.54 519
10.56 529
10.58 539
10.6 516
10.62 495
10.64 550
10.66 536
10.68 496
10.7 497
10.72 532
10.74 518
10.76 522
10.78 552
10.8 506
10.82 481
10.84 479
10.86 508
10.88 485
10.9 515
10.92 489
10.94 499
10.96 493
10.98 537
11 490
11.02 516
11.04 509
11.06 492
11.08 501
11.1 502
11.12 538
11.14 500
11.16 533
11.18 499
11.2 556
11.22 532
11.24 554
11.26 539
11.28 574
11.3 511
11.32 533
11.34 544
11.36 510
11.38 494
11.4 519
11.42 543
11.44 537
11.46 523
11.48 505
11.5 506
11.52 509
11.54 561
11.56 515
11.58 498
11.6 506
11.62 521
11.64 508
11.66 544
11.68 500
11.7 521
11.72 545
11.74 520
11.76 554
11.78 531
11.8 558
11.82 498
11.84 561
11.86 550
11.88 498
11.9 525
11.92 538
11.94 555
11.96 504
11.98 541
12 535
12.02 524
12.04 540
12.06 540
12.08 533
12.1 533
12.12 560
12.14 557
12.16 541
12.18 538
12.2 526
12.22 544
12.24 539
12.26 564
12.28 601
12.3 571
12.32 559
12.34 502
12.36 548
12.38 535
12.4 485
12.42 534
12.44 545
12.46 497
12.48 529
12.5 513
12.52 530
12.54 557
12.56 540
12.58 561
12.6 583
12.62 550
12.64 574
12.66 572
12.68 542
12.7 528
12.72 535
12.74 560
12.76 522
12.78 588
12.8 564
12.82 561
12.84 534
12.86 567
12.88 554
12.9 542
12.92 584
12.94 514
12.96 563
12.98 534
13 509
13.02 542
13.04 567
13.06 563
13.08 550
13.1 532
13.12 562
13.14 553
13.16 538
13.18 549
13.2 541
13.22 562
13.24 571
13.26 582
13.28 565
13.3 582
13.32 560
13.34 573
13.36 591
13.38 617
13.4 579
13.42 564
13.44 544
13.46 517
13.48 511
13.5 545
13.52 587
13.54 542
13.56 566
13.58 529
13.6 533
13.62 570
13.64 553
13.66 591
13.68 522
13.7 587
13.72 540
13.74 558
13.76 535
13.78 550
13.8 576
13.82 568
13.84 529
13.86 588
13.88 556
13.9 579
13.92 563
13.94 605
13.96 573
13.98 617
14 542
14.02 513
14.04 564
14.06 549
14.08 560
14.1 568
14.12 557
14.14 573
14.16 569
14.18 615
14.2 548
14.22 587
14.24 597
14.26 584
14.28 559
14.3 534
14.32 569
14.34 565
14.36 599
14.38 544
14.4 553
14.42 577
14.44 577
14.46 572
14.48 579
14.5 581
14.52 573
14.54 598
14.56 546
14.58 580
14.6 582
14.62 627
14.64 586
14.66 615
14.68 614
14.7 580
14.72 589
14.74 577
14.76 591
14.78 603
14.8 568
14.82 601
14.84 606
14.86 628
14.88 592
14.9 577
14.92 649
14.94 581
14.96 596
14.98 570
15 565
15.02 615
15.04 591
15.06 593
15.08 592
15.1 637
15.12 614
15.14 610
15.16 616
15.18 619
15.2 628
15.22 604
15.24 625
15.26 594
15.28 578
15.3 631
15.32 660
15.34 662
15.36 649
15.38 666
15.4 622
15.42 661
15.44 600
15.46 599
15.48 606
15.5 644
15.52 688
15.54 615
15.56 638
15.58 642
15.6 621
15.62 663
15.64 692
15.66 639
15.68 657
15.7 647
15.72 653
15.74 654
15.76 644
15.78 654
15.8 623
15.82 683
15.84 695
15.86 673
15.88 680
15.9 616
15.92 668
15.94 640
15.96 699
15.98 699
16 701
16.02 667
16.04 651
16.06 670
16.08 643
16.1 678
16.12 673
16.14 677
16.16 722
16.18 650
16.2 709
16.22 716
16.24 697
16.26 696
16.28 704
16.3 704
16.32 723
16.34 707
16.36 684
16.38 733
16.4 710
16.42 684
16.44 725
16.46 686
16.48 704
16.5 746
16.52 733
16.54 780
16.56 743
16.58 746
16.6 783
16.62 723
16.64 744
16.66 773
16.68 764
16.7 764
16.72 839
16.74 784
16.76 864
16.78 879
16.8 942
16.82 936
16.84 1014
16.86 1015
16.88 1099
16.9 1199
16.92 1340
16.94 1447
16.96 1691
16.98 1926
17 2114
17.02 2401
17.04 2612
17.06 2615
17.08 2609
17.1 2337
17.12 1937
17.14 1503
17.16 1270
17.18 1023
17.2 862
17.22 919
17.24 868
17.26 812
17.28 836
17.3 825
17.32 884
17.34 828
17.36 817
17.38 868
17.4 858
17.42 828
17.44 792
17.46 864
17.48 797
17.5 850
17.52 832
17.54 830
17.56 791
17.58 822
17.6 860
17.62 830
17.64 842
17.66 816
17.68 804
17.7 825
17.72 839
17.74 785
17.76 833
17.78 852
17.8 839
17.82 893
17.84 796
17.86 804
17.88 838
17.9 879
17.92 849
17.94 893
17.96 859
17.98 853
18 867
18.02 871
18.04 884
18.06 856
18.08 883
18.1 931
18.12 920
18.14 873
18.16 958
18.18 883
18.2 824
18.22 872
18.24 898
18.26 913
18.28 921
18.3 881
18.32 929
18.34 922
18.36 899
18.38 896
18.4 931
18.42 952
18.44 902
18.46 935
18.48 931
18.5 920
18.52 938
18.54 924
18.56 921
18.58 942
18.6 909
18.62 911
18.64 981
18.66 985
18.68 971
18.7 969
18.72 913
18.74 948
18.76 946
18.78 980
18.8 1001
18.82 1021
18.84 970
18.86 986
18.88 1002
18.9 1036
18.92 980
18.94 987
18.96 978
18.98 974
19 971
19.02 997
19.04 960
19.06 988
19.08 1003
19.1 1012
19.12 963
19.14 980
19.16 950
19.18 1025
19.2 1048
19.22 1019
19.24 1048
19.26 969
19.28 1047
19.3 1048
19.32 1078
19.34 1040
19.36 1047
19.38 1039
19.4 1054
19.42 1030
19.44 1046
19.46 1066
19.48 1038
19.5 1000
19.52 1100
19.54 1012
19.56 1038
19.58 1055
19.6 1040
19.62 1054
19.64 1098
19.66 1073
19.68 1142
19.7 1092
19.72 1095
19.74 1099
19.76 1131
19.78 1072
19.8 1061
19.82 1109
19.84 1127
19.86 1119
19.88 1056
19.9 1118
19.92 1062
19.94 1106
19.96 1080
19.98 1108
20 1075
20.02 1080
20.04 1097
20.06 1129
20.08 1122
20.1 1099
20.12 1108
20.14 1120
20.16 1108
20.18 1128
20.2 1122
20.22 1174
20.24 1134
20.26 1182
20.28 1166
20.3 1128
20.32 1159
20.34 1197
20.36 1104
20.38 1113
20.4 1153
20.42 1185
20.44 1156
20.46 1194
20.48 1090
20.5 1177
20.52 1139
20.54 1157
20.56 1135
20.58 1160
20.6 1194
20.62 1258
20.64 1174
20.66 1157
20.68 1162
20.7 1176
20.72 1186
20.74 1211
20.76 1199
20.78 1171
20.8 1151
20.82 1222
20.84 1189
20.86 1234
20.88 1234
20.9 1227
20.92 1244
20.94 1231
20.96 1257
20.98 1220
21 1235
21.02 1165
21.04 1209
21.06 1237
21.08 1208
21.1 1255
21.12 1252
21.14 1255
21.16 1278
21.18 1286
21.2 1232
21.22 1237
21.24 1242
21.26 1238
21.28 1274
21.3 1230
21.32 1259
21.34 1262
21.36 1241
21.38 1252
21.4 1218
21.42 1245
21.44 1235
21.46 1278
21.48 1231
21.5 1145
21.52 1322
21.54 1325
21.56 1251
21.58 1267
21.6 1300
21.62 1279
21.64 1228
21.66 1234
21.68 1297
21.7 1275
21.72 1305
21.74 1275
21.76 1352
21.78 1212
21.8 1304
21.82 1264
21.84 1229
21.86 1284
21.88 1282
21.9 1329
21.92 1305
21.94 1307
21.96 1343
21.98 1284
22 1256
22.02 1253
22.04 1302
22.06 1322
22.08 1284
22.1 1256
22.12 1297
22.14 1396
22.16 1293
22.18 1266
22.2 1336
22.22 1348
22.24 1243
22.26 1325
22.28 1352
22.3 1353
22.32 1318
22.34 1347
22.36 1308
22.38 1289
22.4 1271
22.42 1345
22.44 1292
22.46 1253
22.48 1307
22.5 1320
22.52 1285
22.54 1306
22.56 1343
22.58 1345
22.6 1348
22.62 1330
22.64 1359
22.66 1302
22.68 1294
22.7 1279
22.72 1338
22.74 1354
22.76 1309
22.78 1331
22.8 1334
22.82 1326
22.84 1336
22.86 1309
22.88 1358
22.9 1282
22.92 1397
22.94 1330
22.96 1322
22.98 1289
23 1296
23.02 1276
23.04 1348
23.06 1362
23.08 1340
23.1 1283
23.12 1274
23.14 1331
23.16 1389
23.18 1317
23.2 1317
23.22 1304
23.24 1241
23.26 1328
23.28 1360
23.3 1297
23.32 1379
23.34 1365
23.36 1321
23.38 1246
23.4 1419
23.42 1327
23.44 1294
23.46 1297
23.48 1353
23.5 1323
23.52 1399
23.54 1408
23.56 1291
23.58 1331
23.6 1323
23.62 1335
23.64 1383
23.66 1314
23.68 1335
23.7 1313
23.72 1322
23.74 1371
23.76 1328
23.78 1292
23.8 1344
23.82 1300
23.84 1322
23.86 1359
23.88 1316
23.9 1328
23.92 1323
23.94 1306
23.96 1412
23.98 1325
24 1363
24.02 1372
24.04 1383
24.06 1364
24.08 1339
24.1 1322
24.12 1401
24.14 1383
24.16 1356
24.18 1347
24.2 1353
24.22 1429
24.24 1399
24.26 1418
24.28 1359
24.3 1444
24.32 1403
24.34 1453
24.36 1449
24.38 1436
24.4 1489
24.42 1525
24.44 1537
24.46 1590
24.48 1650
24.5 1698
24.52 1767
24.54 1793
24.56 1863
24.58 1907
24.6 1783
24.62 1772
24.64 1796
24.66 1770
24.68 1717
24.7 1579
24.72 1555
24.74 1520
24.76 1496
24.78 1509
24.8 1462
24.82 1482
24.84 1410
24.86 1426
24.88 1437
24.9 1468
24.92 1410
24.94 1394
24.96 1345
24.98 1401
25 1371
25.02 1486
25.04 1371
25.06 1349
25.08 1415
25.1 1481
25.12 1498
25.14 1543
25.16 1589
25.18 1655
25.2 1703
25.22 1863
25.24 1962
25.26 2177
25.28 2258
25.3 2366
25.32 2583
25.34 2533
25.36 2560
25.38 2493
25.4 2396
25.42 2098
25.44 1964
25.46 1705
25.48 1727
25.5 1496
25.52 1456
25.54 1369
25.56 1478
25.58 1387
25.6 1344
25.62 1410
25.64 1319
25.66 1402
25.68 1373
25.7 1334
25.72 1393
25.74 1356
25.76 1366
25.78 1335
25.8 1318
25.82 1379
25.84 1371
25.86 1347
25.88 1312
25.9 1320
25.92 1355
25.94 1446
25.96 1349
25.98 1376
26 1314
26.02 1363
26.04 1327
26.06 1295
26.08 1370
26.1 1310
26.12 1292
26.14 1325
26.16 1340
26.18 1319
26.2 1378
26.22 1309
26.24 1252
26.26 1332
26.28 1340
26.3 1259
26.32 1290
26.34 1342
26.36 1256
26.38 1281
26.4 1319
26.42 1349
26.44 1327
26.46 1366
26.48 1283
26.5 1321
26.52 1299
26.54 1386
26.56 1398
26.58 1402
26.6 1423
26.62 1361
26.64 1484
26.66 1544
26.68 1584
26.7 1692
26.72 1704
26.74 1727
26.76 1747
26.78 1732
26.8 1765
26.82 1805
26.84 1975
26.86 2015
26.88 2125
26.9 2221
26.92 2239
26.94 2259
26.96 2175
26.98 2147
27 1993
27.02 1961
27.04 1897
27.06 1704
27.08 1610
27.1 1532
27.12 1453
27.14 1416
27.16 1419
27.18 1338
27.2 1396
27.22 1276
27.24 1367
27.26 1298
27.28 1322
27.3 1291
27.32 1339
27.34 1279
27.36 1310
27.38 1278
27.4 1322
27.42 1172
27.44 1242
27.46 1253
27.48 1183
27.5 1212
27.52 1281
27.54 1279
27.56 1255
27.58 1340
27.6 1247
27.62 1252
27.64 1256
27.66 1227
27.68 1264
27.7 1269
27.72 1219
27.74 1233
27.76 1263
27.78 1352
27.8 1267
27.82 1272
27.84 1230
27.86 1259
27.88 1248
27.9 1252
27.92 1273
27.94 1245
27.96 1303
27.98 1200
28 1287
28.02 1277
28.04 1224
28.06 1316
28.08 1308
28.1 1278
28.12 1186
28.14 1289
28.16 1318
28.18 1333
28.2 1296
28.22 1309
28.24 1338
28.26 1358
28.28 1319
28.3 1187
28.32 1278
28.34 1170
28.36 1210
28.38 1192
28.4 1258
28.42 1195
28.44 1187
28.46 1192
28.48 1242
28.5 1189
28.52 1293
28.54 1201
28.56 1286
28.58 1224
28.6 1239
28.62 1243
28.64 1312
28.66 1287
28.68 1304
28.7 1236
28.72 1257
28.74 1245
28.76 1235
28.78 1186
28.8 1173
28.82 1247
28.84 1161
28.86 1228
28.88 1157
28.9 1206
28.92 1157
28.94 1193
28.96 1211
28.98 1214
29 1235
29.02 1224
29.04 1211
29.06 1270
29.08 1233
29.1 1264
29.12 1296
29.14 1254
29.16 1369
29.18 1376
29.2 1346
29.22 1406
29.24 1368
29.26 1397
29.28 1367
29.3 1386
29.32 1387
29.34 1309
29.36 1359
29.38 1342
29.4 1290
29.42 1236
29.44 1180
29.46 1254
29.48 1177
29.5 1206
29.52 1180
29.54 1184
29.56 1183
29.58 1177
29.6 1067
29.62 1225
29.64 1125
29.66 1090
29.68 1103
29.7 1148
29.72 1136
29.74 1141
29.76 1084
29.78 1162
29.8 1157
29.82 1120
29.84 1143
29.86 1110
29.88 1105
29.9 1156
29.92 1121
29.94 1152
29.96 1136
29.98 1135
30 1073