File: xrd-UiO-67/pxrddata/50-10.ASC
3 6057
3.02 5672
3.04 5258
3.06 4836
3.08 4525
3.1 4135
3.12 3908
3.14 3713
3.16 3449
3.18 3133
3.2 3030
3.22 2923
3.24 2673
3.26 2536
3.28 2383
3.3 2169
3.32 2007
3.34 1862
3.36 1746
3.38 1699
3.4 1569
3.42 1579
3.44 1531
3.46 1483
3.48 1405
3.5 1429
3.52 1356
3.54 1357
3.56 1336
3.58 1365
3.6 1252
3.62 1288
3.64 1286
3.66 1312
3.68 1255
3.7 1277
3.72 1274
3.74 1212
3.76 1196
3.78 1176
3.8 1238
3.82 1266
3.84 1181
3.86 1197
3.88 1143
3.9 1154
3.92 1191
3.94 1169
3.96 1166
3.98 1106
4 1140
4.02 1056
4.04 1073
4.06 1077
4.08 1072
4.1 1075
4.12 1106
4.14 1105
4.16 1087
4.18 1077
4.2 1078
4.22 1035
4.24 1073
4.26 998
4.28 1012
4.3 979
4.32 1044
4.34 982
4.36 981
4.38 954
4.4 996
4.42 994
4.44 992
4.46 955
4.48 1019
4.5 983
4.52 971
4.54 959
4.56 1008
4.58 925
4.6 905
4.62 977
4.64 933
4.66 938
4.68 967
4.7 951
4.72 939
4.74 962
4.76 912
4.78 953
4.8 1011
4.82 894
4.84 899
4.86 934
4.88 917
4.9 930
4.92 887
4.94 945
4.96 922
4.98 949
5 928
5.02 927
5.04 929
5.06 901
5.08 892
5.1 962
5.12 910
5.14 899
5.16 906
5.18 937
5.2 905
5.22 922
5.24 909
5.26 956
5.28 976
5.3 951
5.32 936
5.34 983
5.36 894
5.38 960
5.4 979
5.42 946
5.44 959
5.46 948
5.48 954
5.5 1005
5.52 964
5.54 911
5.56 854
5.58 905
5.6 906
5.62 917
5.64 863
5.66 885
5.68 882
5.7 853
5.72 830
5.74 871
5.76 873
5.78 849
5.8 851
5.82 784
5.84 881
5.86 844
5.88 800
5.9 829
5.92 850
5.94 833
5.96 832
5.98 860
6 768
6.02 909
6.04 804
6.06 806
6.08 884
6.1 814
6.12 818
6.14 839
6.16 774
6.18 807
6.2 810
6.22 839
6.24 807
6.26 843
6.28 786
6.3 806
6.32 838
6.34 837
6.36 767
6.38 822
6.4 777
6.42 789
6.44 760
6.46 783
6.48 797
6.5 785
6.52 762
6.54 813
6.56 800
6.58 744
6.6 813
6.62 797
6.64 794
6.66 813
6.68 766
6.7 779
6.72 764
6.74 784
6.76 814
6.78 749
6.8 803
6.82 791
6.84 801
6.86 784
6.88 816
6.9 755
6.92 802
6.94 774
6.96 746
6.98 763
7 728
7.02 809
7.04 828
7.06 826
7.08 812
7.1 779
7.12 756
7.14 748
7.16 769
7.18 763
7.2 769
7.22 721
7.24 803
7.26 753
7.28 785
7.3 760
7.32 758
7.34 780
7.36 784
7.38 774
7.4 748
7.42 756
7.44 752
7.46 764
7.48 772
7.5 796
7.52 770
7.54 800
7.56 790
7.58 763
7.6 781
7.62 691
7.64 774
7.66 735
7.68 797
7.7 726
7.72 735
7.74 815
7.76 774
7.78 765
7.8 731
7.82 717
7.84 731
7.86 730
7.88 753
7.9 758
7.92 763
7.94 777
7.96 756
7.98 781
8 775
8.02 764
8.04 772
8.06 741
8.08 726
8.1 752
8.12 727
8.14 737
8.16 703
8.18 747
8.2 771
8.22 752
8.24 746
8.26 713
8.28 759
8.3 772
8.32 729
8.34 717
8.36 743
8.38 746
8.4 700
8.42 764
8.44 734
8.46 728
8.48 748
8.5 735
8.52 695
8.54 784
8.56 747
8.58 752
8.6 745
8.62 725
8.64 719
8.66 725
8.68 725
8.7 709
8.72 746
8.74 732
8.76 766
8.78 742
8.8 739
8.82 707
8.84 696
8.86 753
8.88 695
8.9 755
8.92 737
8.94 729
8.96 773
8.98 749
9 707
9.02 751
9.04 751
9.06 710
9.08 715
9.1 758
9.12 738
9.14 789
9.16 748
9.18 727
9.2 702
9.22 753
9.24 790
9.26 749
9.28 795
9.3 732
9.32 766
9.34 751
9.36 750
9.38 717
9.4 729
9.42 740
9.44 788
9.46 777
9.48 738
9.5 748
9.52 758
9.54 716
9.56 740
9.58 763
9.6 721
9.62 776
9.64 696
9.66 735
9.68 705
9.7 732
9.72 729
9.74 705
9.76 707
9.78 715
9.8 722
9.82 762
9.84 721
9.86 742
9.88 729
9.9 768
9.92 775
9.94 742
9.96 693
9.98 727
10 711
10.02 722
10.04 734
10.06 751
10.08 686
10.1 702
10.12 711
10.14 744
10.16 739
10.18 708
10.2 715
10.22 714
10.24 732
10.26 728
10.28 660
10.3 743
10.32 731
10.34 721
10.36 719
10.38 753
10.4 727
10.42 739
10.44 674
10.46 728
10.48 701
10.5 712
10.52 738
10.54 730
10.56 741
10.58 714
10.6 689
10.62 696
10.64 747
10.66 698
10.68 747
10.7 717
10.72 747
10.74 723
10.76 775
10.78 727
10.8 704
10.82 680
10.84 760
10.86 750
10.88 764
10.9 762
10.92 739
10.94 738
10.96 752
10.98 720
11 676
11.02 775
11.04 710
11.06 745
11.08 726
11.1 723
11.12 724
11.14 738
11.16 748
11.18 735
11.2 731
11.22 691
11.24 688
11.26 714
11.28 769
11.3 735
11.32 748
11.34 751
11.36 707
11.38 744
11.4 723
11.42 700
11.44 740
11.46 734
11.48 728
11.5 756
11.52 763
11.54 768
11.56 762
11.58 730
11.6 731
11.62 725
11.64 775
11.66 747
11.68 730
11.7 781
11.72 725
11.74 735
11.76 730
11.78 732
11.8 745
11.82 742
11.84 804
11.86 780
11.88 730
11.9 714
11.92 742
11.94 759
11.96 755
11.98 764
12 767
12.02 733
12.04 723
12.06 759
12.08 772
12.1 776
12.12 798
12.14 764
12.16 790
12.18 734
12.2 760
12.22 744
12.24 735
12.26 740
12.28 711
12.3 731
12.32 779
12.34 758
12.36 736
12.38 757
12.4 728
12.42 766
12.44 788
12.46 818
12.48 763
12.5 770
12.52 753
12.54 818
12.56 755
12.58 758
12.6 829
12.62 775
12.64 830
12.66 813
12.68 791
12.7 767
12.72 820
12.74 787
12.76 763
12.78 800
12.8 787
12.82 745
12.84 793
12.86 780
12.88 814
12.9 810
12.92 766
12.94 795
12.96 785
12.98 775
13 791
13.02 778
13.04 783
13.06 773
13.08 837
13.1 767
13.12 857
13.14 823
13.16 789
13.18 791
13.2 792
13.22 815
13.24 831
13.26 838
13.28 846
13.3 837
13.32 832
13.34 836
13.36 840
13.38 815
13.4 796
13.42 861
13.44 834
13.46 864
13.48 856
13.5 788
13.52 824
13.54 843
13.56 808
13.58 866
13.6 833
13.62 880
13.64 809
13.66 820
13.68 832
13.7 823
13.72 906
13.74 846
13.76 850
13.78 871
13.8 880
13.82 841
13.84 843
13.86 870
13.88 842
13.9 864
13.92 819
13.94 909
13.96 878
13.98 809
14 869
14.02 884
14.04 899
14.06 885
14.08 873
14.1 861
14.12 942
14.14 903
14.16 876
14.18 902
14.2 894
14.22 915
14.24 913
14.26 928
14.28 837
14.3 903
14.32 937
14.34 919
14.36 944
14.38 886
14.4 838
14.42 870
14.44 892
14.46 872
14.48 883
14.5 933
14.52 906
14.54 975
14.56 947
14.58 924
14.6 990
14.62 952
14.64 940
14.66 965
14.68 975
14.7 976
14.72 946
14.74 935
14.76 979
14.78 944
14.8 940
14.82 978
14.84 995
14.86 970
14.88 961
14.9 935
14.92 968
14.94 942
14.96 956
14.98 941
15 936
15.02 945
15.04 975
15.06 913
15.08 960
15.1 956
15.12 1025
15.14 1018
15.16 990
15.18 1016
15.2 977
15.22 992
15.24 986
15.26 1016
15.28 1001
15.3 1002
15.32 1015
15.34 1014
15.36 1043
15.38 954
15.4 1000
15.42 1032
15.44 1053
15.46 1079
15.48 1097
15.5 1057
15.52 1106
15.54 1075
15.56 1058
15.58 1066
15.6 1077
15.62 1028
15.64 1055
15.66 1040
15.68 1078
15.7 1045
15.72 1059
15.74 1027
15.76 1105
15.78 1099
15.8 1117
15.82 1166
15.84 1111
15.86 1086
15.88 1086
15.9 1120
15.92 1046
15.94 1049
15.96 1129
15.98 1087
16 1122
16.02 1136
16.04 1142
16.06 1132
16.08 1103
16.1 1197
16.12 1137
16.14 1134
16.16 1137
16.18 1121
16.2 1094
16.22 1110
16.24 1104
16.26 1150
16.28 1186
16.3 1173
16.32 1199
16.34 1191
16.36 1174
16.38 1174
16.4 1185
16.42 1245
16.44 1236
16.46 1186
16.48 1177
16.5 1174
16.52 1227
16.54 1264
16.56 1210
16.58 1218
16.6 1211
16.62 1183
16.64 1215
16.66 1275
16.68 1304
16.7 1261
16.72 1262
16.74 1245
16.76 1326
16.78 1321
16.8 1364
16.82 1368
16.84 1354
16.86 1390
16.88 1458
16.9 1563
16.92 1587
16.94 1667
16.96 1786
16.98 1880
17 1864
17.02 1824
17.04 1771
17.06 1573
17.08 1532
17.1 1357
17.12 1367
17.14 1371
17.16 1350
17.18 1330
17.2 1404
17.22 1362
17.24 1369
17.26 1376
17.28 1352
17.3 1350
17.32 1336
17.34 1318
17.36 1373
17.38 1386
17.4 1443
17.42 1378
17.44 1403
17.46 1346
17.48 1402
17.5 1384
17.52 1419
17.54 1389
17.56 1384
17.58 1417
17.6 1468
17.62 1380
17.64 1475
17.66 1446
17.68 1408
17.7 1481
17.72 1486
17.74 1462
17.76 1426
17.78 1494
17.8 1454
17.82 1383
17.84 1561
17.86 1506
17.88 1522
17.9 1479
17.92 1503
17.94 1551
17.96 1452
17.98 1504
18 1532
18.02 1534
18.04 1542
18.06 1547
18.08 1597
18.1 1478
18.12 1571
18.14 1548
18.16 1512
18.18 1531
18.2 1550
18.22 1543
18.24 1517
18.26 1514
18.28 1612
18.3 1555
18.32 1507
18.34 1561
18.36 1688
18.38 1559
18.4 1647
18.42 1662
18.44 1591
18.46 1600
18.48 1625
18.5 1628
18.52 1655
18.54 1673
18.56 1623
18.58 1641
18.6 1598
18.62 1659
18.64 1672
18.66 1644
18.68 1653
18.7 1675
18.72 1648
18.74 1676
18.76 1789
18.78 1672
18.8 1715
18.82 1706
18.84 1786
18.86 1645
18.88 1767
18.9 1729
18.92 1654
18.94 1668
18.96 1798
18.98 1744
19 1743
19.02 1758
19.04 1741
19.06 1728
19.08 1833
19.1 1788
19.12 1779
19.14 1809
19.16 1788
19.18 1782
19.2 1796
19.22 1799
19.24 1764
19.26 1744
19.28 1871
19.3 1861
19.32 1754
19.34 1786
19.36 1838
19.38 1896
19.4 1819
19.42 1828
19.44 1822
19.46 1844
19.48 1915
19.5 1842
19.52 1878
19.54 1914
19.56 1807
19.58 1846
19.6 1877
19.62 1899
19.64 2006
19.66 1929
19.68 1949
19.7 1915
19.72 1915
19.74 1990
19.76 1973
19.78 1999
19.8 1980
19.82 1993
19.84 1929
19.86 1918
19.88 1919
19.9 1982
19.92 1938
19.94 1915
19.96 1878
19.98 1921
20 2018