File: xrd-UiO-67/pxrddata/50-1.ASC
3 5730
3.02 5521
3.04 5125
3.06 4789
3.08 4379
3.1 4059
3.12 3671
3.14 3546
3.16 3162
3.18 2913
3.2 2778
3.22 2503
3.24 2360
3.26 2170
3.28 1922
3.3 1757
3.32 1663
3.34 1510
3.36 1456
3.38 1406
3.4 1336
3.42 1305
3.44 1274
3.46 1224
3.48 1251
3.5 1157
3.52 1187
3.54 1140
3.56 1209
3.58 1123
3.6 1166
3.62 1126
3.64 1136
3.66 1125
3.68 1090
3.7 1113
3.72 1083
3.74 1057
3.76 1027
3.78 1059
3.8 1016
3.82 1060
3.84 960
3.86 1018
3.88 960
3.9 1004
3.92 1039
3.94 1029
3.96 1025
3.98 956
4 923
4.02 970
4.04 965
4.06 947
4.08 911
4.1 897
4.12 857
4.14 884
4.16 877
4.18 848
4.2 906
4.22 903
4.24 858
4.26 854
4.28 844
4.3 879
4.32 807
4.34 821
4.36 820
4.38 784
4.4 785
4.42 809
4.44 821
4.46 792
4.48 810
4.5 775
4.52 801
4.54 812
4.56 776
4.58 741
4.6 750
4.62 759
4.64 776
4.66 753
4.68 786
4.7 722
4.72 765
4.74 729
4.76 780
4.78 741
4.8 783
4.82 767
4.84 735
4.86 760
4.88 700
4.9 731
4.92 736
4.94 739
4.96 672
4.98 705
5 678
5.02 766
5.04 720
5.06 717
5.08 723
5.1 748
5.12 725
5.14 708
5.16 720
5.18 716
5.2 690
5.22 731
5.24 704
5.26 716
5.28 732
5.3 716
5.32 740
5.34 676
5.36 731
5.38 774
5.4 725
5.42 747
5.44 748
5.46 750
5.48 756
5.5 732
5.52 725
5.54 820
5.56 756
5.58 751
5.6 766
5.62 718
5.64 701
5.66 720
5.68 728
5.7 735
5.72 691
5.74 676
5.76 675
5.78 671
5.8 669
5.82 676
5.84 681
5.86 657
5.88 642
5.9 636
5.92 614
5.94 654
5.96 664
5.98 634
6 630
6.02 634
6.04 616
6.06 628
6.08 626
6.1 621
6.12 626
6.14 618
6.16 640
6.18 588
6.2 596
6.22 666
6.24 585
6.26 583
6.28 596
6.3 620
6.32 616
6.34 600
6.36 639
6.38 592
6.4 623
6.42 596
6.44 565
6.46 574
6.48 641
6.5 590
6.52 600
6.54 624
6.56 579
6.58 597
6.6 591
6.62 571
6.64 605
6.66 582
6.68 579
6.7 578
6.72 603
6.74 565
6.76 575
6.78 572
6.8 539
6.82 572
6.84 566
6.86 596
6.88 597
6.9 591
6.92 560
6.94 585
6.96 590
6.98 571
7 613
7.02 569
7.04 591
7.06 588
7.08 560
7.1 607
7.12 606
7.14 580
7.16 559
7.18 534
7.2 531
7.22 574
7.24 604
7.26 586
7.28 572
7.3 593
7.32 572
7.34 554
7.36 563
7.38 565
7.4 621
7.42 533
7.44 584
7.46 538
7.48 584
7.5 575
7.52 543
7.54 558
7.56 588
7.58 519
7.6 517
7.62 525
7.64 561
7.66 528
7.68 584
7.7 544
7.72 569
7.74 567
7.76 539
7.78 518
7.8 545
7.82 525
7.84 557
7.86 496
7.88 578
7.9 531
7.92 551
7.94 564
7.96 561
7.98 569
8 575
8.02 562
8.04 527
8.06 551
8.08 528
8.1 561
8.12 557
8.14 491
8.16 529
8.18 552
8.2 567
8.22 559
8.24 539
8.26 532
8.28 545
8.3 563
8.32 546
8.34 554
8.36 482
8.38 518
8.4 537
8.42 567
8.44 568
8.46 529
8.48 512
8.5 534
8.52 523
8.54 557
8.56 523
8.58 522
8.6 522
8.62 518
8.64 531
8.66 532
8.68 542
8.7 531
8.72 547
8.74 559
8.76 533
8.78 555
8.8 520
8.82 539
8.84 534
8.86 509
8.88 529
8.9 531
8.92 514
8.94 551
8.96 574
8.98 579
9 534
9.02 550
9.04 552
9.06 525
9.08 507
9.1 548
9.12 534
9.14 536
9.16 572
9.18 561
9.2 548
9.22 571
9.24 531
9.26 548
9.28 538
9.3 560
9.32 571
9.34 546
9.36 517
9.38 564
9.4 566
9.42 561
9.44 571
9.46 572
9.48 605
9.5 579
9.52 598
9.54 614
9.56 623
9.58 569
9.6 584
9.62 536
9.64 537
9.66 512
9.68 557
9.7 559
9.72 559
9.74 550
9.76 547
9.78 574
9.8 567
9.82 552
9.84 541
9.86 551
9.88 507
9.9 548
9.92 543
9.94 542
9.96 533
9.98 513
10 538
10.02 515
10.04 543
10.06 538
10.08 528
10.1 506
10.12 517
10.14 556
10.16 566
10.18 520
10.2 486
10.22 498
10.24 539
10.26 537
10.28 519
10.3 497
10.32 534
10.34 548
10.36 524
10.38 506
10.4 493
10.42 526
10.44 518
10.46 487
10.48 544
10.5 530
10.52 535
10.54 482
10.56 537
10.58 543
10.6 530
10.62 528
10.64 511
10.66 499
10.68 528
10.7 506
10.72 508
10.74 534
10.76 544
10.78 554
10.8 513
10.82 535
10.84 543
10.86 529
10.88 539
10.9 557
10.92 528
10.94 539
10.96 543
10.98 511
11 557
11.02 559
11.04 530
11.06 509
11.08 485
11.1 536
11.12 533
11.14 495
11.16 571
11.18 530
11.2 562
11.22 518
11.24 485
11.26 507
11.28 539
11.3 585
11.32 539
11.34 526
11.36 535
11.38 516
11.4 507
11.42 517
11.44 519
11.46 518
11.48 517
11.5 513
11.52 522
11.54 519
11.56 517
11.58 537
11.6 520
11.62 494
11.64 539
11.66 533
11.68 558
11.7 500
11.72 531
11.74 509
11.76 500
11.78 516
11.8 529
11.82 522
11.84 519
11.86 529
11.88 541
11.9 507
11.92 526
11.94 527
11.96 550
11.98 544
12 568
12.02 539
12.04 519
12.06 526
12.08 518
12.1 556
12.12 562
12.14 546
12.16 532
12.18 507
12.2 533
12.22 514
12.24 572
12.26 567
12.28 556
12.3 528
12.32 580
12.34 519
12.36 555
12.38 558
12.4 556
12.42 531
12.44 526
12.46 532
12.48 496
12.5 562
12.52 540
12.54 521
12.56 580
12.58 531
12.6 499
12.62 554
12.64 524
12.66 561
12.68 509
12.7 573
12.72 564
12.74 561
12.76 539
12.78 558
12.8 566
12.82 551
12.84 542
12.86 530
12.88 562
12.9 532
12.92 575
12.94 551
12.96 540
12.98 575
13 585
13.02 566
13.04 602
13.06 548
13.08 574
13.1 582
13.12 535
13.14 555
13.16 544
13.18 558
13.2 546
13.22 575
13.24 556
13.26 593
13.28 570
13.3 549
13.32 554
13.34 568
13.36 558
13.38 558
13.4 580
13.42 596
13.44 598
13.46 596
13.48 545
13.5 598
13.52 597
13.54 595
13.56 568
13.58 574
13.6 580
13.62 598
13.64 596
13.66 595
13.68 588
13.7 587
13.72 626
13.74 631
13.76 617
13.78 589
13.8 570
13.82 570
13.84 584
13.86 592
13.88 593
13.9 599
13.92 563
13.94 570
13.96 616
13.98 576
14 580
14.02 622
14.04 627
14.06 609
14.08 621
14.1 598
14.12 578
14.14 594
14.16 611
14.18 605
14.2 607
14.22 574
14.24 560
14.26 626
14.28 614
14.3 615
14.32 614
14.34 647
14.36 616
14.38 613
14.4 674
14.42 593
14.44 611
14.46 615
14.48 621
14.5 624
14.52 661
14.54 598
14.56 621
14.58 643
14.6 654
14.62 661
14.64 593
14.66 622
14.68 689
14.7 660
14.72 619
14.74 636
14.76 660
14.78 663
14.8 660
14.82 661
14.84 654
14.86 663
14.88 661
14.9 694
14.92 642
14.94 647
14.96 664
14.98 659
15 647
15.02 658
15.04 625
15.06 622
15.08 637
15.1 672
15.12 652
15.14 684
15.16 674
15.18 634
15.2 681
15.22 722
15.24 606
15.26 696
15.28 688
15.3 686
15.32 699
15.34 684
15.36 679
15.38 706
15.4 734
15.42 689
15.44 727
15.46 702
15.48 721
15.5 636
15.52 706
15.54 741
15.56 718
15.58 779
15.6 713
15.62 697
15.64 718
15.66 721
15.68 704
15.7 722
15.72 716
15.74 732
15.76 758
15.78 712
15.8 735
15.82 744
15.84 740
15.86 759
15.88 735
15.9 713
15.92 722
15.94 800
15.96 724
15.98 764
16 768
16.02 798
16.04 718
16.06 740
16.08 690
16.1 667
16.12 715
16.14 769
16.16 768
16.18 733
16.2 796
16.22 730
16.24 792
16.26 794
16.28 781
16.3 786
16.32 738
16.34 793
16.36 734
16.38 850
16.4 803
16.42 816
16.44 817
16.46 799
16.48 828
16.5 781
16.52 806
16.54 766
16.56 777
16.58 845
16.6 772
16.62 809
16.64 804
16.66 854
16.68 777
16.7 836
16.72 839
16.74 792
16.76 884
16.78 859
16.8 840
16.82 856
16.84 822
16.86 910
16.88 871
16.9 916
16.92 966
16.94 1000
16.96 967
16.98 970
17 1052
17.02 1210
17.04 1229
17.06 1210
17.08 1220
17.1 1271
17.12 1215
17.14 1245
17.16 1104
17.18 1076
17.2 979
17.22 959
17.24 916
17.26 932
17.28 904
17.3 880
17.32 915
17.34 926
17.36 869
17.38 863
17.4 910
17.42 907
17.44 953
17.46 942
17.48 922
17.5 889
17.52 946
17.54 930
17.56 935
17.58 916
17.6 906
17.62 936
17.64 903
17.66 895
17.68 914
17.7 1008
17.72 907
17.74 924
17.76 928
17.78 924
17.8 952
17.82 936
17.84 947
17.86 974
17.88 989
17.9 993
17.92 936
17.94 982
17.96 936
17.98 1022
18 956
18.02 964
18.04 973
18.06 1032
18.08 989
18.1 966
18.12 993
18.14 1020
18.16 971
18.18 1002
18.2 1011
18.22 1014
18.24 1054
18.26 1061
18.28 1049
18.3 1062
18.32 1003
18.34 1089
18.36 1070
18.38 1038
18.4 1060
18.42 969
18.44 1069
18.46 1101
18.48 976
18.5 1037
18.52 1049
18.54 1073
18.56 1062
18.58 1079
18.6 1025
18.62 1081
18.64 1080
18.66 1092
18.68 1132
18.7 1074
18.72 1071
18.74 1087
18.76 1086
18.78 1095
18.8 1103
18.82 1105
18.84 1081
18.86 1116
18.88 1075
18.9 1114
18.92 1177
18.94 1098
18.96 1114
18.98 1108
19 1106
19.02 1175
19.04 1138
19.06 1119
19.08 1183
19.1 1137
19.12 1115
19.14 1163
19.16 1163
19.18 1140
19.2 1171
19.22 1193
19.24 1159
19.26 1136
19.28 1192
19.3 1222
19.32 1190
19.34 1201
19.36 1210
19.38 1189
19.4 1230
19.42 1167
19.44 1177
19.46 1231
19.48 1228
19.5 1149
19.52 1220
19.54 1264
19.56 1191
19.58 1257
19.6 1244
19.62 1248
19.64 1246
19.66 1288
19.68 1270
19.7 1245
19.72 1244
19.74 1213
19.76 1217
19.78 1240
19.8 1284
19.82 1286
19.84 1279
19.86 1276
19.88 1222
19.9 1279
19.92 1273
19.94 1281
19.96 1349
19.98 1281
20 1267
20.02 1281
20.04 1270
20.06 1228
20.08 1292
20.1 1312
20.12 1307
20.14 1267
20.16 1333
20.18 1292
20.2 1321
20.22 1295
20.24 1308
20.26 1306
20.28 1346
20.3 1318
20.32 1374
20.34 1348
20.36 1345
20.38 1318
20.4 1334
20.42 1352
20.44 1333
20.46 1327
20.48 1391
20.5 1410
20.52 1399
20.54 1402
20.56 1412
20.58 1480
20.6 1435
20.62 1430
20.64 1353
20.66 1368
20.68 1417
20.7 1450
20.72 1422
20.74 1410
20.76 1377
20.78 1450
20.8 1397
20.82 1416
20.84 1381
20.86 1418
20.88 1402
20.9 1439
20.92 1487
20.94 1433
20.96 1406
20.98 1439
21 1461
21.02 1421
21.04 1451
21.06 1441
21.08 1469
21.1 1450
21.12 1417
21.14 1440
21.16 1432
21.18 1469
21.2 1460
21.22 1457
21.24 1492
21.26 1484
21.28 1427
21.3 1469
21.32 1438
21.34 1425
21.36 1446
21.38 1481
21.4 1498
21.42 1477
21.44 1439
21.46 1480
21.48 1463
21.5 1477
21.52 1502
21.54 1468
21.56 1505
21.58 1549
21.6 1516
21.62 1449
21.64 1501
21.66 1460
21.68 1530
21.7 1531
21.72 1373
21.74 1437
21.76 1517
21.78 1463
21.8 1506
21.82 1483
21.84 1486
21.86 1464
21.88 1514
21.9 1494
21.92 1550
21.94 1536
21.96 1560
21.98 1522
22 1500
22.02 1464
22.04 1522
22.06 1549
22.08 1524
22.1 1527
22.12 1580
22.14 1489
22.16 1554
22.18 1509
22.2 1568
22.22 1481
22.24 1570
22.26 1535
22.28 1493
22.3 1568
22.32 1485
22.34 1495
22.36 1506
22.38 1535
22.4 1521
22.42 1552
22.44 1559
22.46 1557
22.48 1510
22.5 1549
22.52 1485
22.54 1601
22.56 1485
22.58 1510
22.6 1507
22.62 1507
22.64 1563
22.66 1544
22.68 1486
22.7 1498
22.72 1573
22.74 1590
22.76 1552
22.78 1496
22.8 1527
22.82 1549
22.84 1481
22.86 1550
22.88 1504
22.9 1530
22.92 1532
22.94 1565
22.96 1466
22.98 1526
23 1554
23.02 1482
23.04 1487
23.06 1532
23.08 1473
23.1 1541
23.12 1504
23.14 1495
23.16 1514
23.18 1545
23.2 1479
23.22 1521
23.24 1481
23.26 1553
23.28 1553
23.3 1614
23.32 1529
23.34 1512
23.36 1490
23.38 1573
23.4 1547
23.42 1506
23.44 1551
23.46 1560
23.48 1559
23.5 1499
23.52 1525
23.54 1596
23.56 1546
23.58 1504
23.6 1509
23.62 1538
23.64 1585
23.66 1526
23.68 1496
23.7 1533
23.72 1600
23.74 1535
23.76 1564
23.78 1531
23.8 1510
23.82 1480
23.84 1553
23.86 1536
23.88 1533
23.9 1569
23.92 1473
23.94 1548
23.96 1494
23.98 1536
24 1544
24.02 1508
24.04 1586
24.06 1452
24.08 1483
24.1 1520
24.12 1498
24.14 1453
24.16 1462
24.18 1464
24.2 1494
24.22 1456
24.24 1513
24.26 1558
24.28 1551
24.3 1530
24.32 1494
24.34 1519
24.36 1507
24.38 1494
24.4 1517
24.42 1560
24.44 1588
24.46 1609
24.48 1572
24.5 1581
24.52 1545
24.54 1581
24.56 1559
24.58 1601
24.6 1625
24.62 1619
24.64 1615
24.66 1548
24.68 1620
24.7 1595
24.72 1578
24.74 1572
24.76 1573
24.78 1578
24.8 1520
24.82 1474
24.84 1526
24.86 1544
24.88 1514
24.9 1589
24.92 1544
24.94 1532
24.96 1542
24.98 1550
25 1494
25.02 1514
25.04 1483
25.06 1553
25.08 1533
25.1 1512
25.12 1515
25.14 1511
25.16 1486
25.18 1550
25.2 1574
25.22 1563
25.24 1482
25.26 1614
25.28 1637
25.3 1676
25.32 1719
25.34 1749
25.36 1728
25.38 1768
25.4 1806
25.42 1686
25.44 1688
25.46 1593
25.48 1558
25.5 1571
25.52 1504
25.54 1510
25.56 1478
25.58 1542
25.6 1485
25.62 1474
25.64 1543
25.66 1423
25.68 1520
25.7 1472
25.72 1512
25.74 1438
25.76 1422
25.78 1456
25.8 1481
25.82 1421
25.84 1463
25.86 1439
25.88 1395
25.9 1388
25.92 1425
25.94 1445
25.96 1402
25.98 1440
26 1420
26.02 1495
26.04 1374
26.06 1461
26.08 1449
26.1 1431
26.12 1496
26.14 1447
26.16 1486
26.18 1441
26.2 1477
26.22 1457
26.24 1420
26.26 1403
26.28 1407
26.3 1517
26.32 1474
26.34 1404
26.36 1445
26.38 1363
26.4 1430
26.42 1390
26.44 1483
26.46 1470
26.48 1404
26.5 1432
26.52 1424
26.54 1456
26.56 1467
26.58 1477
26.6 1381
26.62 1427
26.64 1427
26.66 1417
26.68 1475
26.7 1524
26.72 1497
26.74 1450
26.76 1480
26.78 1519
26.8 1463
26.82 1506
26.84 1535
26.86 1553
26.88 1522
26.9 1643
26.92 1622
26.94 1659
26.96 1577
26.98 1581
27 1633
27.02 1651
27.04 1668
27.06 1577
27.08 1522
27.1 1500
27.12 1521
27.14 1517
27.16 1401
27.18 1396
27.2 1369
27.22 1356
27.24 1398
27.26 1393
27.28 1370
27.3 1438
27.32 1331
27.34 1383
27.36 1424
27.38 1377
27.4 1365
27.42 1354
27.44 1392
27.46 1389
27.48 1388
27.5 1324
27.52 1332
27.54 1308
27.56 1376
27.58 1344
27.6 1382
27.62 1311
27.64 1418
27.66 1366
27.68 1340
27.7 1342
27.72 1345
27.74 1388
27.76 1385
27.78 1349
27.8 1419
27.82 1340
27.84 1326
27.86 1330
27.88 1361
27.9 1364
27.92 1310
27.94 1328
27.96 1463
27.98 1401
28 1289
28.02 1301
28.04 1368
28.06 1399
28.08 1336
28.1 1365
28.12 1367
28.14 1355
28.16 1377
28.18 1335
28.2 1313
28.22 1393
28.24 1415
28.26 1386
28.28 1403
28.3 1374
28.32 1339
28.34 1313
28.36 1274
28.38 1258
28.4 1311
28.42 1299
28.44 1354
28.46 1319
28.48 1312
28.5 1329
28.52 1357
28.54 1321
28.56 1348
28.58 1302
28.6 1298
28.62 1312
28.64 1301
28.66 1348
28.68 1301
28.7 1293
28.72 1262
28.74 1327
28.76 1284
28.78 1334
28.8 1323
28.82 1271
28.84 1242
28.86 1299
28.88 1309
28.9 1293
28.92 1287
28.94 1360
28.96 1296
28.98 1304
29 1255
29.02 1333
29.04 1298
29.06 1247
29.08 1286
29.1 1310
29.12 1306
29.14 1292
29.16 1269
29.18 1306
29.2 1334
29.22 1221
29.24 1331
29.26 1296
29.28 1286
29.3 1290
29.32 1273
29.34 1279
29.36 1399
29.38 1361
29.4 1294
29.42 1289
29.44 1329
29.46 1313
29.48 1262
29.5 1278
29.52 1289
29.54 1259
29.56 1284
29.58 1242
29.6 1245
29.62 1296
29.64 1261
29.66 1165
29.68 1229
29.7 1212
29.72 1233
29.74 1244
29.76 1162
29.78 1257
29.8 1205
29.82 1264
29.84 1265
29.86 1260
29.88 1203
29.9 1268
29.92 1253
29.94 1213
29.96 1273
29.98 1231
30 1207