File: xrd-UiO-67/pxrddata/50-9.ASC
3 6615
3.02 6206
3.04 5745
3.06 5555
3.08 5171
3.1 4879
3.12 4487
3.14 4337
3.16 4000
3.18 3924
3.2 3792
3.22 3546
3.24 3277
3.26 2919
3.28 2784
3.3 2408
3.32 2184
3.34 2029
3.36 1861
3.38 1839
3.4 1682
3.42 1668
3.44 1709
3.46 1740
3.48 1578
3.5 1588
3.52 1578
3.54 1596
3.56 1671
3.58 1710
3.6 1719
3.62 1720
3.64 1799
3.66 1735
3.68 1828
3.7 1839
3.72 1776
3.74 1633
3.76 1572
3.78 1568
3.8 1462
3.82 1477
3.84 1401
3.86 1277
3.88 1311
3.9 1290
3.92 1244
3.94 1162
3.96 1183
3.98 1157
4 1177
4.02 1194
4.04 1152
4.06 1169
4.08 1122
4.1 1221
4.12 1133
4.14 1172
4.16 1061
4.18 1064
4.2 1111
4.22 1114
4.24 1097
4.26 1040
4.28 1078
4.3 1024
4.32 978
4.34 977
4.36 983
4.38 952
4.4 973
4.42 1003
4.44 943
4.46 996
4.48 977
4.5 936
4.52 907
4.54 980
4.56 971
4.58 948
4.6 980
4.62 912
4.64 875
4.66 925
4.68 945
4.7 939
4.72 893
4.74 904
4.76 884
4.78 910
4.8 894
4.82 903
4.84 866
4.86 903
4.88 890
4.9 905
4.92 890
4.94 918
4.96 901
4.98 876
5 848
5.02 857
5.04 829
5.06 880
5.08 841
5.1 858
5.12 828
5.14 871
5.16 913
5.18 899
5.2 854
5.22 880
5.24 887
5.26 882
5.28 885
5.3 857
5.32 884
5.34 873
5.36 915
5.38 918
5.4 924
5.42 951
5.44 1023
5.46 912
5.48 985
5.5 941
5.52 932
5.54 889
5.56 922
5.58 899
5.6 865
5.62 876
5.64 824
5.66 837
5.68 849
5.7 834
5.72 856
5.74 776
5.76 839
5.78 871
5.8 831
5.82 827
5.84 786
5.86 790
5.88 790
5.9 816
5.92 787
5.94 852
5.96 795
5.98 763
6 804
6.02 846
6.04 820
6.06 789
6.08 726
6.1 770
6.12 754
6.14 766
6.16 689
6.18 760
6.2 760
6.22 749
6.24 761
6.26 746
6.28 758
6.3 762
6.32 779
6.34 732
6.36 782
6.38 733
6.4 732
6.42 710
6.44 743
6.46 707
6.48 724
6.5 732
6.52 730
6.54 730
6.56 761
6.58 776
6.6 712
6.62 779
6.64 743
6.66 707
6.68 708
6.7 740
6.72 702
6.74 720
6.76 760
6.78 687
6.8 729
6.82 751
6.84 712
6.86 738
6.88 685
6.9 736
6.92 680
6.94 710
6.96 678
6.98 694
7 684
7.02 719
7.04 692
7.06 715
7.08 685
7.1 633
7.12 694
7.14 696
7.16 762
7.18 705
7.2 698
7.22 711
7.24 683
7.26 715
7.28 702
7.3 700
7.32 714
7.34 743
7.36 685
7.38 653
7.4 700
7.42 686
7.44 689
7.46 683
7.48 648
7.5 663
7.52 681
7.54 681
7.56 665
7.58 674
7.6 712
7.62 713
7.64 645
7.66 751
7.68 692
7.7 706
7.72 697
7.74 719
7.76 637
7.78 668
7.8 627
7.82 702
7.84 686
7.86 713
7.88 649
7.9 680
7.92 695
7.94 631
7.96 670
7.98 675
8 640
8.02 663
8.04 703
8.06 678
8.08 694
8.1 653
8.12 661
8.14 678
8.16 654
8.18 665
8.2 624
8.22 656
8.24 670
8.26 665
8.28 705
8.3 674
8.32 665
8.34 630
8.36 624
8.38 668
8.4 659
8.42 637
8.44 604
8.46 644
8.48 655
8.5 655
8.52 644
8.54 636
8.56 697
8.58 676
8.6 626
8.62 677
8.64 649
8.66 655
8.68 651
8.7 676
8.72 684
8.74 637
8.76 673
8.78 640
8.8 666
8.82 584
8.84 710
8.86 671
8.88 677
8.9 700
8.92 670
8.94 665
8.96 647
8.98 641
9 677
9.02 616
9.04 699
9.06 661
9.08 680
9.1 636
9.12 686
9.14 687
9.16 730
9.18 716
9.2 686
9.22 682
9.24 687
9.26 647
9.28 674
9.3 653
9.32 684
9.34 679
9.36 720
9.38 684
9.4 720
9.42 785
9.44 743
9.46 679
9.48 707
9.5 719
9.52 739
9.54 716
9.56 701
9.58 695
9.6 641
9.62 687
9.64 713
9.66 655
9.68 667
9.7 667
9.72 667
9.74 658
9.76 672
9.78 639
9.8 648
9.82 660
9.84 643
9.86 698
9.88 668
9.9 661
9.92 651
9.94 599
9.96 638
9.98 649
10 655
10.02 618
10.04 654
10.06 667
10.08 633
10.1 636
10.12 604
10.14 626
10.16 675
10.18 636
10.2 645
10.22 649
10.24 622
10.26 631
10.28 615
10.3 634
10.32 655
10.34 645
10.36 640
10.38 641
10.4 643
10.42 601
10.44 688
10.46 646
10.48 651
10.5 611
10.52 650
10.54 663
10.56 659
10.58 646
10.6 607
10.62 676
10.64 629
10.66 670
10.68 636
10.7 622
10.72 569
10.74 637
10.76 646
10.78 628
10.8 686
10.82 666
10.84 678
10.86 698
10.88 667
10.9 676
10.92 695
10.94 686
10.96 625
10.98 644
11 603
11.02 661
11.04 668
11.06 640
11.08 610
11.1 612
11.12 601
11.14 606
11.16 639
11.18 658
11.2 618
11.22 664
11.24 635
11.26 614
11.28 632
11.3 605
11.32 634
11.34 646
11.36 650
11.38 625
11.4 604
11.42 606
11.44 627
11.46 645
11.48 621
11.5 629
11.52 643
11.54 612
11.56 640
11.58 643
11.6 640
11.62 639
11.64 639
11.66 611
11.68 663
11.7 628
11.72 667
11.74 614
11.76 632
11.78 672
11.8 641
11.82 624
11.84 611
11.86 653
11.88 647
11.9 670
11.92 636
11.94 667
11.96 654
11.98 680
12 603
12.02 663
12.04 637
12.06 606
12.08 636
12.1 667
12.12 627
12.14 612
12.16 606
12.18 669
12.2 627
12.22 676
12.24 656
12.26 684
12.28 608
12.3 674
12.32 629
12.34 678
12.36 657
12.38 676
12.4 627
12.42 631
12.44 664
12.46 616
12.48 605
12.5 665
12.52 640
12.54 656
12.56 655
12.58 708
12.6 662
12.62 638
12.64 603
12.66 679
12.68 658
12.7 655
12.72 670
12.74 671
12.76 657
12.78 663
12.8 699
12.82 693
12.84 699
12.86 694
12.88 663
12.9 669
12.92 654
12.94 661
12.96 658
12.98 665
13 657
13.02 692
13.04 705
13.06 682
13.08 677
13.1 710
13.12 690
13.14 670
13.16 668
13.18 711
13.2 728
13.22 692
13.24 702
13.26 642
13.28 698
13.3 659
13.32 717
13.34 705
13.36 679
13.38 681
13.4 675
13.42 695
13.44 683
13.46 667
13.48 678
13.5 675
13.52 700
13.54 704
13.56 691
13.58 729
13.6 686
13.62 694
13.64 725
13.66 697
13.68 701
13.7 655
13.72 770
13.74 743
13.76 712
13.78 771
13.8 713
13.82 705
13.84 715
13.86 751
13.88 758
13.9 712
13.92 709
13.94 754
13.96 757
13.98 748
14 736
14.02 728
14.04 794
14.06 784
14.08 735
14.1 726
14.12 710
14.14 792
14.16 710
14.18 677
14.2 737
14.22 754
14.24 771
14.26 725
14.28 731
14.3 727
14.32 755
14.34 739
14.36 748
14.38 792
14.4 785
14.42 778
14.44 759
14.46 768
14.48 801
14.5 749
14.52 745
14.54 736
14.56 812
14.58 800
14.6 753
14.62 750
14.64 792
14.66 763
14.68 754
14.7 840
14.72 768
14.74 808
14.76 767
14.78 810
14.8 800
14.82 806
14.84 790
14.86 833
14.88 748
14.9 806
14.92 784
14.94 809
14.96 807
14.98 767
15 797
15.02 817
15.04 744
15.06 783
15.08 809
15.1 848
15.12 774
15.14 801
15.16 828
15.18 829
15.2 828
15.22 850
15.24 792
15.26 852
15.28 837
15.3 840
15.32 790
15.34 819
15.36 813
15.38 820
15.4 878
15.42 883
15.44 855
15.46 868
15.48 865
15.5 863
15.52 852
15.54 820
15.56 866
15.58 854
15.6 883
15.62 844
15.64 840
15.66 921
15.68 905
15.7 894
15.72 884
15.74 880
15.76 867
15.78 866
15.8 875
15.82 863
15.84 884
15.86 890
15.88 922
15.9 921
15.92 896
15.94 875
15.96 895
15.98 897
16 867
16.02 936
16.04 891
16.06 926
16.08 915
16.1 895
16.12 928
16.14 913
16.16 952
16.18 914
16.2 892
16.22 935
16.24 907
16.26 871
16.28 962
16.3 936
16.32 926
16.34 918
16.36 903
16.38 950
16.4 959
16.42 924
16.44 926
16.46 923
16.48 1017
16.5 997
16.52 938
16.54 969
16.56 996
16.58 996
16.6 1023
16.62 983
16.64 967
16.66 983
16.68 1009
16.7 1017
16.72 1025
16.74 1030
16.76 976
16.78 1062
16.8 1071
16.82 1080
16.84 1068
16.86 1080
16.88 1096
16.9 1206
16.92 1245
16.94 1259
16.96 1378
16.98 1376
17 1387
17.02 1350
17.04 1369
17.06 1196
17.08 1224
17.1 1165
17.12 1044
17.14 1046
17.16 1122
17.18 1070
17.2 1104
17.22 1120
17.24 1089
17.26 1052
17.28 1078
17.3 1027
17.32 1080
17.34 1104
17.36 1070
17.38 1101
17.4 1156
17.42 1086
17.44 1078
17.46 1090
17.48 1030
17.5 1127
17.52 1113
17.54 1086
17.56 1119
17.58 1074
17.6 1147
17.62 1120
17.64 1137
17.66 1184
17.68 1145
17.7 1184
17.72 1151
17.74 1149
17.76 1177
17.78 1215
17.8 1174
17.82 1161
17.84 1183
17.86 1173
17.88 1114
17.9 1193
17.92 1110
17.94 1125
17.96 1173
17.98 1132
18 1220
18.02 1175
18.04 1120
18.06 1129
18.08 1216
18.1 1197
18.12 1216
18.14 1207
18.16 1231
18.18 1196
18.2 1219
18.22 1180
18.24 1193
18.26 1234
18.28 1263
18.3 1221
18.32 1266
18.34 1206
18.36 1274
18.38 1215
18.4 1274
18.42 1266
18.44 1234
18.46 1263
18.48 1232
18.5 1323
18.52 1322
18.54 1322
18.56 1258
18.58 1267
18.6 1318
18.62 1285
18.64 1376
18.66 1295
18.68 1316
18.7 1314
18.72 1400
18.74 1342
18.76 1327
18.78 1342
18.8 1386
18.82 1298
18.84 1339
18.86 1335
18.88 1370
18.9 1361
18.92 1404
18.94 1349
18.96 1327
18.98 1356
19 1343
19.02 1391
19.04 1380
19.06 1406
19.08 1435
19.1 1431
19.12 1381
19.14 1362
19.16 1346
19.18 1370
19.2 1424
19.22 1382
19.24 1369
19.26 1429
19.28 1469
19.3 1378
19.32 1432
19.34 1440
19.36 1435
19.38 1461
19.4 1489
19.42 1476
19.44 1481
19.46 1415
19.48 1419
19.5 1480
19.52 1449
19.54 1546
19.56 1445
19.58 1499
19.6 1473
19.62 1394
19.64 1477
19.66 1507
19.68 1469
19.7 1478
19.72 1515
19.74 1466
19.76 1487
19.78 1543
19.8 1488
19.82 1519
19.84 1528
19.86 1531
19.88 1520
19.9 1521
19.92 1548
19.94 1521
19.96 1476
19.98 1452
20 1534