File: xrd-UiO-67/pxrddata/51-1.ASC
3 5822
3.02 5625
3.04 5114
3.06 4630
3.08 4409
3.1 4152
3.12 3819
3.14 3692
3.16 3479
3.18 3050
3.2 2829
3.22 2706
3.24 2520
3.26 2387
3.28 2217
3.3 2114
3.32 1937
3.34 1866
3.36 1809
3.38 1780
3.4 1834
3.42 1737
3.44 1715
3.46 1736
3.48 1639
3.5 1548
3.52 1610
3.54 1576
3.56 1536
3.58 1523
3.6 1474
3.62 1531
3.64 1507
3.66 1415
3.68 1404
3.7 1433
3.72 1443
3.74 1415
3.76 1341
3.78 1397
3.8 1237
3.82 1306
3.84 1266
3.86 1279
3.88 1268
3.9 1302
3.92 1232
3.94 1256
3.96 1230
3.98 1222
4 1245
4.02 1198
4.04 1187
4.06 1151
4.08 1161
4.1 1155
4.12 1068
4.14 1118
4.16 1049
4.18 1145
4.2 1097
4.22 1108
4.24 1061
4.26 1028
4.28 1022
4.3 1004
4.32 1025
4.34 995
4.36 958
4.38 1011
4.4 1010
4.42 957
4.44 1008
4.46 955
4.48 913
4.5 947
4.52 936
4.54 938
4.56 937
4.58 901
4.6 891
4.62 889
4.64 844
4.66 849
4.68 873
4.7 912
4.72 879
4.74 857
4.76 831
4.78 830
4.8 859
4.82 835
4.84 848
4.86 896
4.88 773
4.9 804
4.92 838
4.94 811
4.96 808
4.98 791
5 876
5.02 796
5.04 816
5.06 819
5.08 801
5.1 833
5.12 809
5.14 809
5.16 814
5.18 822
5.2 763
5.22 784
5.24 859
5.26 813
5.28 790
5.3 802
5.32 832
5.34 830
5.36 843
5.38 830
5.4 841
5.42 835
5.44 866
5.46 795
5.48 843
5.5 801
5.52 847
5.54 813
5.56 807
5.58 779
5.6 746
5.62 771
5.64 739
5.66 744
5.68 767
5.7 699
5.72 774
5.74 712
5.76 686
5.78 693
5.8 672
5.82 719
5.84 679
5.86 671
5.88 636
5.9 669
5.92 650
5.94 696
5.96 646
5.98 665
6 693
6.02 687
6.04 664
6.06 665
6.08 598
6.1 645
6.12 611
6.14 702
6.16 632
6.18 597
6.2 614
6.22 577
6.24 645
6.26 635
6.28 647
6.3 613
6.32 591
6.34 624
6.36 619
6.38 609
6.4 661
6.42 631
6.44 612
6.46 623
6.48 605
6.5 610
6.52 643
6.54 616
6.56 604
6.58 617
6.6 622
6.62 647
6.64 612
6.66 619
6.68 606
6.7 563
6.72 626
6.74 584
6.76 627
6.78 595
6.8 563
6.82 584
6.84 577
6.86 604
6.88 626
6.9 628
6.92 600
6.94 611
6.96 547
6.98 556
7 604
7.02 598
7.04 604
7.06 594
7.08 592
7.1 566
7.12 561
7.14 576
7.16 571
7.18 561
7.2 576
7.22 549
7.24 554
7.26 530
7.28 571
7.3 633
7.32 560
7.34 572
7.36 596
7.38 559
7.4 577
7.42 569
7.44 542
7.46 546
7.48 610
7.5 555
7.52 569
7.54 531
7.56 531
7.58 519
7.6 548
7.62 573
7.64 586
7.66 557
7.68 539
7.7 549
7.72 591
7.74 583
7.76 578
7.78 568
7.8 554
7.82 568
7.84 518
7.86 548
7.88 564
7.9 550
7.92 546
7.94 540
7.96 530
7.98 524
8 519
8.02 553
8.04 535
8.06 505
8.08 542
8.1 551
8.12 502
8.14 552
8.16 491
8.18 472
8.2 515
8.22 559
8.24 545
8.26 554
8.28 518
8.3 539
8.32 574
8.34 559
8.36 538
8.38 540
8.4 541
8.42 558
8.44 537
8.46 555
8.48 499
8.5 544
8.52 525
8.54 536
8.56 510
8.58 538
8.6 524
8.62 489
8.64 511
8.66 523
8.68 522
8.7 521
8.72 536
8.74 510
8.76 552
8.78 521
8.8 524
8.82 517
8.84 500
8.86 498
8.88 524
8.9 513
8.92 474
8.94 504
8.96 499
8.98 519
9 494
9.02 522
9.04 524
9.06 506
9.08 534
9.1 518
9.12 543
9.14 509
9.16 510
9.18 568
9.2 549
9.22 538
9.24 523
9.26 547
9.28 536
9.3 530
9.32 561
9.34 597
9.36 605
9.38 579
9.4 592
9.42 554
9.44 577
9.46 553
9.48 595
9.5 571
9.52 547
9.54 565
9.56 536
9.58 553
9.6 552
9.62 605
9.64 492
9.66 529
9.68 544
9.7 549
9.72 528
9.74 535
9.76 544
9.78 499
9.8 486
9.82 495
9.84 495
9.86 524
9.88 508
9.9 471
9.92 504
9.94 490
9.96 522
9.98 500
10 500
10.02 499
10.04 520
10.06 478
10.08 504
10.1 525
10.12 514
10.14 495
10.16 479
10.18 543
10.2 483
10.22 487
10.24 506
10.26 506
10.28 482
10.3 501
10.32 490
10.34 526
10.36 494
10.38 517
10.4 525
10.42 499
10.44 484
10.46 511
10.48 496
10.5 495
10.52 503
10.54 545
10.56 524
10.58 519
10.6 486
10.62 541
10.64 452
10.66 503
10.68 461
10.7 508
10.72 525
10.74 534
10.76 474
10.78 501
10.8 507
10.82 541
10.84 490
10.86 540
10.88 505
10.9 546
10.92 518
10.94 522
10.96 494
10.98 513
11 533
11.02 484
11.04 477
11.06 478
11.08 502
11.1 511
11.12 539
11.14 511
11.16 500
11.18 499
11.2 501
11.22 496
11.24 490
11.26 509
11.28 511
11.3 530
11.32 501
11.34 486
11.36 515
11.38 544
11.4 518
11.42 535
11.44 478
11.46 517
11.48 493
11.5 477
11.52 491
11.54 496
11.56 469
11.58 498
11.6 468
11.62 448
11.64 532
11.66 496
11.68 470
11.7 556
11.72 453
11.74 510
11.76 504
11.78 509
11.8 506
11.82 551
11.84 517
11.86 487
11.88 505
11.9 516
11.92 501
11.94 506
11.96 518
11.98 466
12 468
12.02 501
12.04 496
12.06 531
12.08 568
12.1 525
12.12 521
12.14 531
12.16 499
12.18 503
12.2 530
12.22 501
12.24 530
12.26 517
12.28 529
12.3 511
12.32 493
12.34 466
12.36 515
12.38 471
12.4 525
12.42 503
12.44 462
12.46 510
12.48 559
12.5 532
12.52 509
12.54 520
12.56 530
12.58 482
12.6 500
12.62 498
12.64 527
12.66 500
12.68 505
12.7 488
12.72 579
12.74 528
12.76 518
12.78 546
12.8 532
12.82 536
12.84 505
12.86 520
12.88 566
12.9 515
12.92 523
12.94 548
12.96 518
12.98 532
13 542
13.02 553
13.04 515
13.06 533
13.08 531
13.1 511
13.12 548
13.14 535
13.16 507
13.18 563
13.2 517
13.22 507
13.24 522
13.26 515
13.28 517
13.3 537
13.32 545
13.34 574
13.36 550
13.38 537
13.4 579
13.42 531
13.44 536
13.46 550
13.48 543
13.5 564
13.52 535
13.54 594
13.56 532
13.58 545
13.6 595
13.62 543
13.64 508
13.66 534
13.68 518
13.7 504
13.72 562
13.74 580
13.76 546
13.78 560
13.8 577
13.82 595
13.84 545
13.86 500
13.88 563
13.9 543
13.92 560
13.94 554
13.96 528
13.98 523
14 527
14.02 554
14.04 560
14.06 584
14.08 554
14.1 555
14.12 568
14.14 533
14.16 579
14.18 588
14.2 636
14.22 572
14.24 588
14.26 575
14.28 582
14.3 594
14.32 589
14.34 603
14.36 609
14.38 557
14.4 550
14.42 612
14.44 587
14.46 604
14.48 587
14.5 596
14.52 580
14.54 593
14.56 596
14.58 580
14.6 649
14.62 634
14.64 563
14.66 603
14.68 602
14.7 613
14.72 598
14.74 617
14.76 633
14.78 624
14.8 618
14.82 643
14.84 628
14.86 619
14.88 636
14.9 600
14.92 610
14.94 619
14.96 598
14.98 631
15 638
15.02 582
15.04 575
15.06 617
15.08 617
15.1 603
15.12 634
15.14 595
15.16 620
15.18 650
15.2 562
15.22 608
15.24 629
15.26 608
15.28 634
15.3 607
15.32 597
15.34 677
15.36 624
15.38 648
15.4 659
15.42 694
15.44 638
15.46 643
15.48 666
15.5 618
15.52 646
15.54 635
15.56 662
15.58 674
15.6 656
15.62 630
15.64 679
15.66 641
15.68 586
15.7 698
15.72 671
15.74 674
15.76 709
15.78 706
15.8 681
15.82 641
15.84 616
15.86 639
15.88 634
15.9 659
15.92 687
15.94 675
15.96 666
15.98 676
16 659
16.02 707
16.04 660
16.06 658
16.08 677
16.1 680
16.12 652
16.14 718
16.16 724
16.18 705
16.2 723
16.22 707
16.24 710
16.26 702
16.28 731
16.3 710
16.32 758
16.34 687
16.36 691
16.38 717
16.4 695
16.42 693
16.44 724
16.46 735
16.48 737
16.5 712
16.52 744
16.54 694
16.56 796
16.58 739
16.6 734
16.62 741
16.64 808
16.66 766
16.68 755
16.7 723
16.72 859
16.74 811
16.76 819
16.78 812
16.8 826
16.82 850
16.84 878
16.86 868
16.88 954
16.9 1028
16.92 1055
16.94 1165
16.96 1268
16.98 1358
17 1352
17.02 1464
17.04 1426
17.06 1299
17.08 1150
17.1 1069
17.12 979
17.14 957
17.16 861
17.18 831
17.2 884
17.22 880
17.24 792
17.26 837
17.28 793
17.3 833
17.32 772
17.34 866
17.36 820
17.38 833
17.4 829
17.42 798
17.44 796
17.46 858
17.48 831
17.5 803
17.52 889
17.54 841
17.56 894
17.58 837
17.6 831
17.62 819
17.64 856
17.66 831
17.68 878
17.7 843
17.72 865
17.74 885
17.76 842
17.78 873
17.8 878
17.82 872
17.84 856
17.86 847
17.88 862
17.9 884
17.92 848
17.94 877
17.96 938
17.98 914
18 912
18.02 864
18.04 915
18.06 927
18.08 954
18.1 882
18.12 935
18.14 927
18.16 934
18.18 928
18.2 893
18.22 919
18.24 897
18.26 893
18.28 952
18.3 942
18.32 921
18.34 881
18.36 913
18.38 905
18.4 982
18.42 940
18.44 913
18.46 897
18.48 974
18.5 980
18.52 960
18.54 981
18.56 955
18.58 923
18.6 933
18.62 994
18.64 969
18.66 992
18.68 949
18.7 991
18.72 982
18.74 1012
18.76 985
18.78 1012
18.8 972
18.82 985
18.84 1014
18.86 1014
18.88 1029
18.9 970
18.92 1003
18.94 1014
18.96 1052
18.98 1011
19 1050
19.02 1050
19.04 1032
19.06 1010
19.08 1025
19.1 971
19.12 1036
19.14 1043
19.16 1068
19.18 1090
19.2 1027
19.22 974
19.24 1034
19.26 1043
19.28 1016
19.3 1051
19.32 1022
19.34 1059
19.36 1009
19.38 1061
19.4 1062
19.42 1050
19.44 1060
19.46 1043
19.48 1097
19.5 1068
19.52 1078
19.54 1087
19.56 1070
19.58 1050
19.6 1132
19.62 1105
19.64 1080
19.66 1062
19.68 1110
19.7 1082
19.72 1113
19.74 1129
19.76 1101
19.78 1120
19.8 1125
19.82 1113
19.84 1124
19.86 1099
19.88 1158
19.9 1107
19.92 1092
19.94 1123
19.96 1196
19.98 1091
20 1176