File: xrd-UiO-67/pxrddata/51-9.ASC
3 5675
3.02 5343
3.04 4958
3.06 4576
3.08 4308
3.1 4117
3.12 3797
3.14 3458
3.16 3357
3.18 2934
3.2 2850
3.22 2667
3.24 2511
3.26 2331
3.28 2125
3.3 2058
3.32 1905
3.34 1709
3.36 1756
3.38 1724
3.4 1681
3.42 1584
3.44 1671
3.46 1561
3.48 1592
3.5 1561
3.52 1545
3.54 1572
3.56 1531
3.58 1495
3.6 1524
3.62 1497
3.64 1513
3.66 1482
3.68 1519
3.7 1490
3.72 1418
3.74 1392
3.76 1432
3.78 1431
3.8 1359
3.82 1324
3.84 1258
3.86 1336
3.88 1213
3.9 1323
3.92 1305
3.94 1325
3.96 1264
3.98 1214
4 1246
4.02 1163
4.04 1197
4.06 1173
4.08 1266
4.1 1174
4.12 1211
4.14 1251
4.16 1189
4.18 1119
4.2 1132
4.22 1161
4.24 1155
4.26 1130
4.28 1114
4.3 1067
4.32 1164
4.34 1041
4.36 1081
4.38 1082
4.4 1060
4.42 1067
4.44 1053
4.46 1079
4.48 1055
4.5 1024
4.52 1019
4.54 996
4.56 1003
4.58 1044
4.6 982
4.62 983
4.64 995
4.66 964
4.68 955
4.7 1012
4.72 1006
4.74 937
4.76 980
4.78 1005
4.8 953
4.82 967
4.84 964
4.86 940
4.88 891
4.9 931
4.92 960
4.94 957
4.96 956
4.98 942
5 1019
5.02 979
5.04 889
5.06 948
5.08 929
5.1 958
5.12 906
5.14 910
5.16 935
5.18 934
5.2 963
5.22 950
5.24 962
5.26 929
5.28 954
5.3 964
5.32 936
5.34 946
5.36 935
5.38 970
5.4 1005
5.42 960
5.44 1022
5.46 1085
5.48 1113
5.5 1034
5.52 1007
5.54 982
5.56 956
5.58 892
5.6 864
5.62 892
5.64 889
5.66 911
5.68 865
5.7 833
5.72 835
5.74 833
5.76 802
5.78 837
5.8 835
5.82 831
5.84 851
5.86 832
5.88 788
5.9 792
5.92 779
5.94 810
5.96 809
5.98 806
6 837
6.02 781
6.04 808
6.06 824
6.08 773
6.1 786
6.12 800
6.14 778
6.16 752
6.18 783
6.2 769
6.22 783
6.24 781
6.26 740
6.28 775
6.3 800
6.32 770
6.34 759
6.36 781
6.38 789
6.4 760
6.42 764
6.44 732
6.46 813
6.48 785
6.5 771
6.52 717
6.54 770
6.56 753
6.58 777
6.6 753
6.62 765
6.64 748
6.66 764
6.68 784
6.7 729
6.72 723
6.74 780
6.76 702
6.78 723
6.8 738
6.82 679
6.84 769
6.86 733
6.88 749
6.9 742
6.92 759
6.94 747
6.96 774
6.98 730
7 728
7.02 757
7.04 741
7.06 709
7.08 749
7.1 762
7.12 710
7.14 727
7.16 721
7.18 745
7.2 675
7.22 714
7.24 721
7.26 710
7.28 695
7.3 713
7.32 720
7.34 732
7.36 689
7.38 768
7.4 704
7.42 719
7.44 715
7.46 720
7.48 726
7.5 717
7.52 699
7.54 695
7.56 722
7.58 707
7.6 698
7.62 684
7.64 691
7.66 699
7.68 735
7.7 674
7.72 673
7.74 701
7.76 697
7.78 690
7.8 674
7.82 735
7.84 691
7.86 684
7.88 635
7.9 653
7.92 659
7.94 683
7.96 699
7.98 697
8 632
8.02 652
8.04 693
8.06 682
8.08 647
8.1 649
8.12 671
8.14 656
8.16 676
8.18 676
8.2 655
8.22 672
8.24 639
8.26 640
8.28 674
8.3 621
8.32 654
8.34 646
8.36 680
8.38 637
8.4 653
8.42 653
8.44 684
8.46 653
8.48 635
8.5 635
8.52 697
8.54 708
8.56 616
8.58 669
8.6 667
8.62 674
8.64 634
8.66 666
8.68 662
8.7 667
8.72 650
8.74 615
8.76 645
8.78 627
8.8 638
8.82 626
8.84 665
8.86 610
8.88 631
8.9 640
8.92 645
8.94 602
8.96 651
8.98 677
9 631
9.02 660
9.04 622
9.06 705
9.08 656
9.1 690
9.12 645
9.14 650
9.16 651
9.18 635
9.2 625
9.22 653
9.24 710
9.26 679
9.28 699
9.3 644
9.32 655
9.34 718
9.36 681
9.38 754
9.4 686
9.42 690
9.44 704
9.46 701
9.48 658
9.5 720
9.52 650
9.54 658
9.56 648
9.58 691
9.6 655
9.62 643
9.64 636
9.66 658
9.68 623
9.7 602
9.72 630
9.74 643
9.76 602
9.78 634
9.8 651
9.82 595
9.84 665
9.86 589
9.88 643
9.9 664
9.92 617
9.94 644
9.96 591
9.98 608
10 604
10.02 574
10.04 598
10.06 603
10.08 579
10.1 541
10.12 613
10.14 612
10.16 578
10.18 627
10.2 584
10.22 644
10.24 623
10.26 578
10.28 578
10.3 606
10.32 644
10.34 650
10.36 624
10.38 553
10.4 608
10.42 654
10.44 595
10.46 628
10.48 581
10.5 584
10.52 600
10.54 602
10.56 578
10.58 585
10.6 583
10.62 569
10.64 568
10.66 628
10.68 647
10.7 617
10.72 640
10.74 538
10.76 615
10.78 641
10.8 573
10.82 614
10.84 611
10.86 641
10.88 597
10.9 652
10.92 623
10.94 619
10.96 622
10.98 606
11 660
11.02 562
11.04 627
11.06 616
11.08 637
11.1 633
11.12 618
11.14 621
11.16 583
11.18 610
11.2 617
11.22 555
11.24 647
11.26 608
11.28 622
11.3 583
11.32 581
11.34 567
11.36 597
11.38 599
11.4 605
11.42 592
11.44 591
11.46 597
11.48 573
11.5 575
11.52 631
11.54 608
11.56 612
11.58 598
11.6 585
11.62 587
11.64 576
11.66 566
11.68 574
11.7 623
11.72 582
11.74 602
11.76 626
11.78 579
11.8 616
11.82 599
11.84 614
11.86 596
11.88 592
11.9 547
11.92 595
11.94 605
11.96 572
11.98 572
12 580
12.02 561
12.04 562
12.06 618
12.08 581
12.1 587
12.12 622
12.14 583
12.16 606
12.18 614
12.2 588
12.22 576
12.24 577
12.26 614
12.28 586
12.3 637
12.32 631
12.34 608
12.36 604
12.38 613
12.4 542
12.42 556
12.44 588
12.46 597
12.48 579
12.5 602
12.52 622
12.54 598
12.56 602
12.58 609
12.6 616
12.62 615
12.64 608
12.66 612
12.68 580
12.7 597
12.72 607
12.74 643
12.76 635
12.78 619
12.8 622
12.82 601
12.84 634
12.86 626
12.88 638
12.9 624
12.92 615
12.94 601
12.96 601
12.98 612
13 579
13.02 598
13.04 643
13.06 590
13.08 602
13.1 614
13.12 631
13.14 630
13.16 629
13.18 619
13.2 612
13.22 611
13.24 633
13.26 614
13.28 609
13.3 654
13.32 631
13.34 625
13.36 616
13.38 674
13.4 596
13.42 619
13.44 624
13.46 636
13.48 655
13.5 623
13.52 664
13.54 681
13.56 652
13.58 633
13.6 616
13.62 606
13.64 648
13.66 674
13.68 663
13.7 672
13.72 647
13.74 642
13.76 640
13.78 644
13.8 691
13.82 678
13.84 641
13.86 590
13.88 662
13.9 676
13.92 684
13.94 701
13.96 685
13.98 684
14 659
14.02 683
14.04 666
14.06 661
14.08 666
14.1 683
14.12 682
14.14 696
14.16 674
14.18 662
14.2 670
14.22 687
14.24 648
14.26 685
14.28 646
14.3 678
14.32 667
14.34 692
14.36 645
14.38 697
14.4 678
14.42 707
14.44 684
14.46 664
14.48 711
14.5 683
14.52 654
14.54 694
14.56 743
14.58 688
14.6 689
14.62 758
14.64 689
14.66 689
14.68 689
14.7 713
14.72 693
14.74 721
14.76 714
14.78 710
14.8 685
14.82 755
14.84 698
14.86 672
14.88 681
14.9 722
14.92 660
14.94 750
14.96 715
14.98 727
15 745
15.02 727
15.04 726
15.06 738
15.08 709
15.1 704
15.12 677
15.14 722
15.16 701
15.18 723
15.2 692
15.22 735
15.24 738
15.26 671
15.28 741
15.3 692
15.32 741
15.34 722
15.36 721
15.38 776
15.4 760
15.42 747
15.44 815
15.46 746
15.48 750
15.5 769
15.52 801
15.54 741
15.56 766
15.58 769
15.6 746
15.62 771
15.64 776
15.66 766
15.68 789
15.7 757
15.72 754
15.74 752
15.76 723
15.78 756
15.8 785
15.82 761
15.84 741
15.86 825
15.88 786
15.9 750
15.92 760
15.94 783
15.96 802
15.98 805
16 794
16.02 772
16.04 801
16.06 842
16.08 795
16.1 843
16.12 796
16.14 813
16.16 808
16.18 787
16.2 813
16.22 795
16.24 820
16.26 776
16.28 887
16.3 799
16.32 772
16.34 811
16.36 813
16.38 878
16.4 855
16.42 911
16.44 848
16.46 822
16.48 858
16.5 837
16.52 873
16.54 843
16.56 810
16.58 850
16.6 857
16.62 891
16.64 889
16.66 907
16.68 895
16.7 903
16.72 906
16.74 929
16.76 930
16.78 921
16.8 904
16.82 907
16.84 933
16.86 958
16.88 980
16.9 1017
16.92 1015
16.94 1117
16.96 1227
16.98 1190
17 1239
17.02 1218
17.04 1203
17.06 1198
17.08 1129
17.1 1040
17.12 995
17.14 1005
17.16 976
17.18 1015
17.2 944
17.22 964
17.24 1013
17.26 974
17.28 929
17.3 989
17.32 937
17.34 974
17.36 990
17.38 959
17.4 940
17.42 983
17.44 978
17.46 936
17.48 1013
17.5 1000
17.52 990
17.54 977
17.56 1024
17.58 1006
17.6 989
17.62 988
17.64 965
17.66 1027
17.68 1003
17.7 1022
17.72 1049
17.74 1003
17.76 1103
17.78 1059
17.8 1088
17.82 1070
17.84 1035
17.86 1022
17.88 1022
17.9 984
17.92 1022
17.94 969
17.96 1039
17.98 1084
18 1025
18.02 1076
18.04 1103
18.06 1087
18.08 1043
18.1 1069
18.12 1081
18.14 1054
18.16 1129
18.18 1100
18.2 1063
18.22 1124
18.24 1084
18.26 1041
18.28 1074
18.3 1142
18.32 1065
18.34 1057
18.36 1073
18.38 1104
18.4 1058
18.42 1104
18.44 1147
18.46 1130
18.48 1131
18.5 1134
18.52 1173
18.54 1169
18.56 1127
18.58 1133
18.6 1220
18.62 1144
18.64 1168
18.66 1167
18.68 1094
18.7 1191
18.72 1133
18.74 1154
18.76 1192
18.78 1167
18.8 1208
18.82 1173
18.84 1151
18.86 1237
18.88 1187
18.9 1273
18.92 1207
18.94 1200
18.96 1204
18.98 1139
19 1175
19.02 1249
19.04 1183
19.06 1196
19.08 1192
19.1 1216
19.12 1233
19.14 1204
19.16 1202
19.18 1220
19.2 1198
19.22 1252
19.24 1252
19.26 1287
19.28 1282
19.3 1177
19.32 1204
19.34 1271
19.36 1237
19.38 1232
19.4 1219
19.42 1221
19.44 1293
19.46 1232
19.48 1224
19.5 1312
19.52 1319
19.54 1311
19.56 1300
19.58 1282
19.6 1237
19.62 1301
19.64 1338
19.66 1347
19.68 1258
19.7 1306
19.72 1270
19.74 1276
19.76 1307
19.78 1358
19.8 1369
19.82 1322
19.84 1274
19.86 1285
19.88 1334
19.9 1375
19.92 1360
19.94 1347
19.96 1303
19.98 1333
20 1358