File: xrd-UiO-67/pxrddata/52-10.ASC
3 6315
3.02 6068
3.04 5512
3.06 5177
3.08 4796
3.1 4595
3.12 4205
3.14 3825
3.16 3584
3.18 3412
3.2 3138
3.22 2884
3.24 2678
3.26 2496
3.28 2366
3.3 2082
3.32 1983
3.34 1840
3.36 1787
3.38 1681
3.4 1630
3.42 1629
3.44 1630
3.46 1640
3.48 1531
3.5 1531
3.52 1505
3.54 1463
3.56 1482
3.58 1480
3.6 1414
3.62 1421
3.64 1474
3.66 1440
3.68 1395
3.7 1390
3.72 1396
3.74 1406
3.76 1354
3.78 1398
3.8 1327
3.82 1389
3.84 1301
3.86 1374
3.88 1367
3.9 1383
3.92 1389
3.94 1314
3.96 1355
3.98 1415
4 1322
4.02 1374
4.04 1436
4.06 1431
4.08 1419
4.1 1429
4.12 1405
4.14 1350
4.16 1363
4.18 1273
4.2 1221
4.22 1205
4.24 1117
4.26 1052
4.28 1069
4.3 1061
4.32 1027
4.34 1015
4.36 996
4.38 952
4.4 926
4.42 933
4.44 970
4.46 965
4.48 948
4.5 930
4.52 870
4.54 892
4.56 931
4.58 892
4.6 878
4.62 914
4.64 886
4.66 865
4.68 901
4.7 847
4.72 868
4.74 920
4.76 913
4.78 901
4.8 881
4.82 887
4.84 898
4.86 922
4.88 867
4.9 898
4.92 921
4.94 966
4.96 931
4.98 956
5 896
5.02 938
5.04 943
5.06 980
5.08 1001
5.1 1045
5.12 987
5.14 1020
5.16 1058
5.18 1134
5.2 1144
5.22 1142
5.24 1204
5.26 1269
5.28 1330
5.3 1417
5.32 1435
5.34 1494
5.36 1632
5.38 1796
5.4 1942
5.42 2127
5.44 2268
5.46 2032
5.48 1797
5.5 1681
5.52 1672
5.54 1589
5.56 1683
5.58 1792
5.6 1782
5.62 1887
5.64 2033
5.66 2147
5.68 2378
5.7 2624
5.72 2864
5.74 3159
5.76 3595
5.78 4013
5.8 4097
5.82 3659
5.84 2841
5.86 2125
5.88 1553
5.9 1245
5.92 1132
5.94 944
5.96 926
5.98 830
6 781
6.02 793
6.04 798
6.06 767
6.08 788
6.1 726
6.12 719
6.14 747
6.16 716
6.18 720
6.2 723
6.22 665
6.24 719
6.26 762
6.28 729
6.3 732
6.32 713
6.34 734
6.36 725
6.38 723
6.4 728
6.42 693
6.44 708
6.46 730
6.48 722
6.5 726
6.52 677
6.54 729
6.56 736
6.58 772
6.6 814
6.62 776
6.64 784
6.66 765
6.68 796
6.7 827
6.72 905
6.74 932
6.76 947
6.78 897
6.8 931
6.82 878
6.84 784
6.86 747
6.88 758
6.9 687
6.92 636
6.94 692
6.96 657
6.98 639
7 668
7.02 613
7.04 662
7.06 642
7.08 602
7.1 604
7.12 679
7.14 660
7.16 626
7.18 665
7.2 649
7.22 652
7.24 635
7.26 629
7.28 615
7.3 650
7.32 626
7.34 655
7.36 625
7.38 673
7.4 636
7.42 633
7.44 640
7.46 652
7.48 624
7.5 654
7.52 621
7.54 607
7.56 664
7.58 660
7.6 625
7.62 622
7.64 650
7.66 610
7.68 637
7.7 597
7.72 595
7.74 656
7.76 626
7.78 660
7.8 627
7.82 652
7.84 658
7.86 632
7.88 652
7.9 682
7.92 668
7.94 596
7.96 626
7.98 675
8 640
8.02 688
8.04 683
8.06 682
8.08 639
8.1 703
8.12 660
8.14 699
8.16 635
8.18 714
8.2 639
8.22 640
8.24 650
8.26 652
8.28 641
8.3 670
8.32 629
8.34 619
8.36 603
8.38 623
8.4 629
8.42 614
8.44 628
8.46 611
8.48 633
8.5 693
8.52 627
8.54 598
8.56 598
8.58 603
8.6 598
8.62 640
8.64 631
8.66 622
8.68 657
8.7 592
8.72 630
8.74 665
8.76 628
8.78 605
8.8 634
8.82 630
8.84 666
8.86 601
8.88 661
8.9 679
8.92 658
8.94 648
8.96 652
8.98 622
9 712
9.02 677
9.04 671
9.06 705
9.08 706
9.1 739
9.12 767
9.14 811
9.16 767
9.18 864
9.2 880
9.22 900
9.24 969
9.26 990
9.28 1076
9.3 1188
9.32 1405
9.34 1568
9.36 1596
9.38 1469
9.4 1192
9.42 996
9.44 852
9.46 739
9.48 681
9.5 665
9.52 702
9.54 692
9.56 644
9.58 683
9.6 651
9.62 655
9.64 654
9.66 642
9.68 657
9.7 702
9.72 710
9.74 645
9.76 704
9.78 670
9.8 679
9.82 688
9.84 686
9.86 691
9.88 639
9.9 644
9.92 713
9.94 708
9.96 677
9.98 663
10 689
10.02 701
10.04 715
10.06 805
10.08 750
10.1 804
10.12 841
10.14 836
10.16 872
10.18 940
10.2 938
10.22 923
10.24 881
10.26 794
10.28 759
10.3 726
10.32 688
10.34 662
10.36 709
10.38 668
10.4 686
10.42 680
10.44 701
10.46 703
10.48 624
10.5 671
10.52 678
10.54 689
10.56 667
10.58 693
10.6 690
10.62 746
10.64 719
10.66 726
10.68 780
10.7 752
10.72 804
10.74 795
10.76 847
10.78 979
10.8 914
10.82 986
10.84 926
10.86 915
10.88 945
10.9 969
10.92 1030
10.94 1062
10.96 1154
10.98 1264
11 1134
11.02 1090
11.04 907
11.06 806
11.08 703
11.1 698
11.12 679
11.14 731
11.16 653
11.18 722
11.2 691
11.22 713
11.24 717
11.26 668
11.28 689
11.3 697
11.32 758
11.34 677
11.36 728
11.38 754
11.4 775
11.42 766
11.44 820
11.46 845
11.48 860
11.5 865
11.52 938
11.54 933
11.56 884
11.58 820
11.6 831
11.62 743
11.64 790
11.66 734
11.68 753
11.7 759
11.72 705
11.74 668
11.76 684
11.78 678
11.8 719
11.82 681
11.84 706
11.86 665
11.88 733
11.9 717
11.92 693
11.94 676
11.96 735
11.98 677
12 680
12.02 689
12.04 701
12.06 753
12.08 737
12.1 692
12.12 738
12.14 788
12.16 774
12.18 779
12.2 851
12.22 806
12.24 782
12.26 826
12.28 808
12.3 811
12.32 734
12.34 717
12.36 743
12.38 729
12.4 739
12.42 735
12.44 721
12.46 700
12.48 729
12.5 742
12.52 736
12.54 708
12.56 714
12.58 743
12.6 743
12.62 699
12.64 717
12.66 746
12.68 726
12.7 721
12.72 706
12.74 673
12.76 685
12.78 696
12.8 709
12.82 735
12.84 690
12.86 712
12.88 714
12.9 730
12.92 736
12.94 742
12.96 735
12.98 734
13 714
13.02 718
13.04 755
13.06 735
13.08 711
13.1 712
13.12 738
13.14 732
13.16 704
13.18 735
13.2 741
13.22 787
13.24 763
13.26 769
13.28 756
13.3 792
13.32 784
13.34 834
13.36 779
13.38 799
13.4 755
13.42 755
13.44 801
13.46 797
13.48 783
13.5 793
13.52 783
13.54 751
13.56 813
13.58 755
13.6 798
13.62 737
13.64 746
13.66 731
13.68 760
13.7 767
13.72 775
13.74 785
13.76 760
13.78 728
13.8 756
13.82 765
13.84 734
13.86 731
13.88 776
13.9 771
13.92 734
13.94 768
13.96 791
13.98 776
14 799
14.02 733
14.04 778
14.06 825
14.08 791
14.1 762
14.12 768
14.14 810
14.16 814
14.18 831
14.2 796
14.22 817
14.24 850
14.26 825
14.28 847
14.3 831
14.32 826
14.34 850
14.36 869
14.38 833
14.4 854
14.42 891
14.44 832
14.46 799
14.48 862
14.5 846
14.52 844
14.54 805
14.56 791
14.58 822
14.6 792
14.62 844
14.64 825
14.66 790
14.68 817
14.7 874
14.72 874
14.74 849
14.76 882
14.78 920
14.8 901
14.82 911
14.84 934
14.86 880
14.88 878
14.9 878
14.92 826
14.94 830
14.96 838
14.98 866
15 885
15.02 853
15.04 886
15.06 847
15.08 887
15.1 870
15.12 836
15.14 878
15.16 863
15.18 835
15.2 887
15.22 923
15.24 967
15.26 913
15.28 880
15.3 939
15.32 932
15.34 860
15.36 874
15.38 907
15.4 885
15.42 914
15.44 880
15.46 915
15.48 881
15.5 944
15.52 878
15.54 890
15.56 876
15.58 901
15.6 893
15.62 911
15.64 973
15.66 869
15.68 929
15.7 878
15.72 976
15.74 900
15.76 874
15.78 908
15.8 928
15.82 935
15.84 910
15.86 952
15.88 904
15.9 915
15.92 946
15.94 946
15.96 914
15.98 976
16 914
16.02 945
16.04 964
16.06 949
16.08 954
16.1 904
16.12 934
16.14 977
16.16 975
16.18 1009
16.2 953
16.22 1014
16.24 1056
16.26 1045
16.28 1015
16.3 994
16.32 1040
16.34 982
16.36 992
16.38 990
16.4 1018
16.42 1026
16.44 982
16.46 1020
16.48 1031
16.5 1021
16.52 1014
16.54 993
16.56 1040
16.58 955
16.6 978
16.62 1068
16.64 1028
16.66 991
16.68 1005
16.7 1043
16.72 993
16.74 1079
16.76 1037
16.78 1053
16.8 1025
16.82 1008
16.84 1051
16.86 1078
16.88 1146
16.9 1157
16.92 1174
16.94 1230
16.96 1308
16.98 1338
17 1235
17.02 1239
17.04 1198
17.06 1095
17.08 1084
17.1 1104
17.12 1085
17.14 1044
17.16 1096
17.18 1074
17.2 1094
17.22 1092
17.24 1123
17.26 1066
17.28 1140
17.3 1125
17.32 1094
17.34 1124
17.36 1108
17.38 1120
17.4 1066
17.42 1122
17.44 1109
17.46 1154
17.48 1089
17.5 1106
17.52 1128
17.54 1090
17.56 1080
17.58 1149
17.6 1085
17.62 1106
17.64 1166
17.66 1122
17.68 1153
17.7 1119
17.72 1157
17.74 1143
17.76 1169
17.78 1149
17.8 1194
17.82 1202
17.84 1209
17.86 1169
17.88 1183
17.9 1237
17.92 1235
17.94 1153
17.96 1190
17.98 1180
18 1195
18.02 1185
18.04 1184
18.06 1120
18.08 1244
18.1 1131
18.12 1203
18.14 1221
18.16 1178
18.18 1163
18.2 1247
18.22 1205
18.24 1179
18.26 1197
18.28 1224
18.3 1265
18.32 1244
18.34 1286
18.36 1205
18.38 1273
18.4 1166
18.42 1283
18.44 1278
18.46 1230
18.48 1204
18.5 1194
18.52 1241
18.54 1224
18.56 1234
18.58 1240
18.6 1259
18.62 1278
18.64 1259
18.66 1355
18.68 1341
18.7 1326
18.72 1359
18.74 1312
18.76 1323
18.78 1351
18.8 1365
18.82 1366
18.84 1304
18.86 1359
18.88 1396
18.9 1360
18.92 1347
18.94 1351
18.96 1321
18.98 1315
19 1335
19.02 1345
19.04 1356
19.06 1346
19.08 1439
19.1 1447
19.12 1446
19.14 1514
19.16 1506
19.18 1506
19.2 1470
19.22 1373
19.24 1358
19.26 1359
19.28 1377
19.3 1377
19.32 1407
19.34 1476
19.36 1413
19.38 1494
19.4 1447
19.42 1482
19.44 1495
19.46 1462
19.48 1506
19.5 1464
19.52 1516
19.54 1546
19.56 1701
19.58 1563
19.6 1575
19.62 1518
19.64 1451
19.66 1425
19.68 1495
19.7 1395
19.72 1403
19.74 1396
19.76 1413
19.78 1404
19.8 1379
19.82 1440
19.84 1518
19.86 1475
19.88 1460
19.9 1521
19.92 1498
19.94 1475
19.96 1440
19.98 1418
20 1471