File: xrd-UiO-67/pxrddata/52-11.ASC
3 6022
3.02 5641
3.04 5347
3.06 4939
3.08 4538
3.1 4277
3.12 3991
3.14 3718
3.16 3491
3.18 3148
3.2 3035
3.22 2780
3.24 2569
3.26 2394
3.28 2212
3.3 2061
3.32 1855
3.34 1797
3.36 1643
3.38 1672
3.4 1552
3.42 1517
3.44 1514
3.46 1448
3.48 1427
3.5 1419
3.52 1387
3.54 1405
3.56 1394
3.58 1358
3.6 1381
3.62 1342
3.64 1327
3.66 1293
3.68 1259
3.7 1314
3.72 1317
3.74 1226
3.76 1271
3.78 1238
3.8 1213
3.82 1279
3.84 1273
3.86 1193
3.88 1275
3.9 1241
3.92 1152
3.94 1288
3.96 1337
3.98 1269
4 1252
4.02 1280
4.04 1272
4.06 1234
4.08 1313
4.1 1274
4.12 1234
4.14 1197
4.16 1157
4.18 1150
4.2 1089
4.22 1131
4.24 1063
4.26 1022
4.28 1015
4.3 986
4.32 975
4.34 955
4.36 944
4.38 936
4.4 982
4.42 928
4.44 925
4.46 894
4.48 986
4.5 906
4.52 923
4.54 909
4.56 944
4.58 857
4.6 882
4.62 877
4.64 893
4.66 878
4.68 900
4.7 904
4.72 877
4.74 890
4.76 892
4.78 856
4.8 911
4.82 876
4.84 859
4.86 944
4.88 969
4.9 919
4.92 994
4.94 961
4.96 934
4.98 963
5 990
5.02 949
5.04 985
5.06 995
5.08 1048
5.1 1077
5.12 1147
5.14 1129
5.16 1081
5.18 1166
5.2 1238
5.22 1265
5.24 1324
5.26 1323
5.28 1438
5.3 1450
5.32 1604
5.34 1719
5.36 1759
5.38 1906
5.4 2103
5.42 2284
5.44 2531
5.46 2501
5.48 2320
5.5 2076
5.52 1926
5.54 1819
5.56 1815
5.58 1848
5.6 1889
5.62 2024
5.64 2081
5.66 2227
5.68 2274
5.7 2430
5.72 2605
5.74 2750
5.76 3079
5.78 3350
5.8 3449
5.82 3288
5.84 2819
5.86 2232
5.88 1762
5.9 1411
5.92 1217
5.94 1008
5.96 949
5.98 889
6 880
6.02 842
6.04 787
6.06 759
6.08 809
6.1 801
6.12 700
6.14 766
6.16 744
6.18 790
6.2 761
6.22 802
6.24 723
6.26 713
6.28 725
6.3 750
6.32 712
6.34 690
6.36 677
6.38 679
6.4 702
6.42 716
6.44 732
6.46 717
6.48 743
6.5 735
6.52 755
6.54 740
6.56 729
6.58 760
6.6 782
6.62 786
6.64 785
6.66 804
6.68 790
6.7 855
6.72 828
6.74 858
6.76 864
6.78 906
6.8 805
6.82 886
6.84 786
6.86 815
6.88 765
6.9 750
6.92 701
6.94 708
6.96 676
6.98 710
7 679
7.02 672
7.04 651
7.06 675
7.08 713
7.1 697
7.12 637
7.14 642
7.16 667
7.18 643
7.2 644
7.22 648
7.24 643
7.26 636
7.28 661
7.3 633
7.32 640
7.34 603
7.36 637
7.38 662
7.4 646
7.42 625
7.44 684
7.46 641
7.48 640
7.5 657
7.52 645
7.54 610
7.56 617
7.58 652
7.6 660
7.62 613
7.64 629
7.66 632
7.68 669
7.7 660
7.72 641
7.74 667
7.76 635
7.78 695
7.8 667
7.82 615
7.84 642
7.86 604
7.88 625
7.9 683
7.92 680
7.94 657
7.96 674
7.98 659
8 686
8.02 673
8.04 674
8.06 665
8.08 699
8.1 713
8.12 698
8.14 692
8.16 710
8.18 711
8.2 655
8.22 669
8.24 657
8.26 671
8.28 680
8.3 686
8.32 644
8.34 659
8.36 678
8.38 649
8.4 638
8.42 658
8.44 643
8.46 694
8.48 660
8.5 615
8.52 622
8.54 665
8.56 630
8.58 642
8.6 653
8.62 611
8.64 656
8.66 671
8.68 674
8.7 632
8.72 662
8.74 629
8.76 634
8.78 666
8.8 646
8.82 694
8.84 669
8.86 650
8.88 678
8.9 656
8.92 717
8.94 662
8.96 726
8.98 730
9 680
9.02 732
9.04 743
9.06 705
9.08 743
9.1 795
9.12 801
9.14 783
9.16 832
9.18 859
9.2 932
9.22 934
9.24 1045
9.26 1002
9.28 1187
9.3 1236
9.32 1337
9.34 1526
9.36 1678
9.38 1626
9.4 1305
9.42 1117
9.44 904
9.46 811
9.48 732
9.5 751
9.52 709
9.54 699
9.56 736
9.58 709
9.6 735
9.62 648
9.64 693
9.66 642
9.68 674
9.7 645
9.72 695
9.74 666
9.76 668
9.78 729
9.8 748
9.82 686
9.84 680
9.86 672
9.88 746
9.9 708
9.92 704
9.94 698
9.96 714
9.98 695
10 697
10.02 766
10.04 725
10.06 772
10.08 748
10.1 766
10.12 748
10.14 860
10.16 872
10.18 864
10.2 884
10.22 887
10.24 799
10.26 801
10.28 743
10.3 740
10.32 727
10.34 669
10.36 659
10.38 724
10.4 704
10.42 692
10.44 725
10.46 725
10.48 683
10.5 671
10.52 679
10.54 753
10.56 703
10.58 698
10.6 686
10.62 717
10.64 754
10.66 793
10.68 821
10.7 780
10.72 826
10.74 864
10.76 922
10.78 952
10.8 981
10.82 1035
10.84 926
10.86 1029
10.88 934
10.9 995
10.92 1044
10.94 1108
10.96 1098
10.98 1237
11 1157
11.02 1102
11.04 926
11.06 876
11.08 853
11.1 758
11.12 742
11.14 702
11.16 771
11.18 700
11.2 731
11.22 750
11.24 739
11.26 736
11.28 697
11.3 725
11.32 729
11.34 739
11.36 704
11.38 769
11.4 800
11.42 759
11.44 781
11.46 831
11.48 816
11.5 839
11.52 825
11.54 860
11.56 869
11.58 824
11.6 846
11.62 798
11.64 734
11.66 739
11.68 708
11.7 745
11.72 741
11.74 708
11.76 725
11.78 709
11.8 688
11.82 689
11.84 698
11.86 697
11.88 740
11.9 723
11.92 728
11.94 712
11.96 797
11.98 760
12 731
12.02 713
12.04 713
12.06 726
12.08 743
12.1 713
12.12 761
12.14 733
12.16 826
12.18 780
12.2 816
12.22 818
12.24 769
12.26 773
12.28 790
12.3 847
12.32 811
12.34 743
12.36 828
12.38 757
12.4 805
12.42 778
12.44 739
12.46 733
12.48 782
12.5 786
12.52 747
12.54 717
12.56 792
12.58 742
12.6 772
12.62 736
12.64 720
12.66 703
12.68 751
12.7 722
12.72 734
12.74 683
12.76 733
12.78 704
12.8 800
12.82 756
12.84 718
12.86 723
12.88 717
12.9 737
12.92 748
12.94 772
12.96 755
12.98 729
13 806
13.02 773
13.04 750
13.06 773
13.08 794
13.1 741
13.12 778
13.14 741
13.16 751
13.18 758
13.2 755
13.22 770
13.24 839
13.26 844
13.28 825
13.3 922
13.32 812
13.34 815
13.36 852
13.38 837
13.4 850
13.42 860
13.44 839
13.46 827
13.48 837
13.5 827
13.52 815
13.54 805
13.56 821
13.58 823
13.6 778
13.62 831
13.64 792
13.66 802
13.68 863
13.7 832
13.72 822
13.74 823
13.76 784
13.78 820
13.8 843
13.82 860
13.84 849
13.86 802
13.88 805
13.9 795
13.92 827
13.94 873
13.96 878
13.98 811
14 826
14.02 815
14.04 842
14.06 808
14.08 892
14.1 889
14.12 805
14.14 925
14.16 914
14.18 878
14.2 852
14.22 907
14.24 907
14.26 899
14.28 866
14.3 923
14.32 915
14.34 835
14.36 884
14.38 934
14.4 914
14.42 956
14.44 954
14.46 871
14.48 939
14.5 904
14.52 842
14.54 882
14.56 871
14.58 906
14.6 941
14.62 907
14.64 925
14.66 959
14.68 962
14.7 921
14.72 960
14.74 928
14.76 981
14.78 974
14.8 919
14.82 1040
14.84 985
14.86 972
14.88 1015
14.9 977
14.92 972
14.94 997
14.96 989
14.98 930
15 979
15.02 927
15.04 1024
15.06 981
15.08 932
15.1 957
15.12 965
15.14 964
15.16 977
15.18 982
15.2 1032
15.22 988
15.24 999
15.26 1023
15.28 1081
15.3 1028
15.32 1012
15.34 1097
15.36 1027
15.38 1036
15.4 973
15.42 1026
15.44 1001
15.46 959
15.48 1009
15.5 1032
15.52 1014
15.54 1030
15.56 1016
15.58 943
15.6 1049
15.62 1030
15.64 1033
15.66 999
15.68 1020
15.7 1054
15.72 1079
15.74 1069
15.76 1058
15.78 1111
15.8 1038
15.82 1045
15.84 1048
15.86 1099
15.88 1081
15.9 1116
15.92 1134
15.94 1067
15.96 1135
15.98 1106
16 1127
16.02 1091
16.04 1146
16.06 1146
16.08 1140
16.1 1111
16.12 1103
16.14 1120
16.16 1104
16.18 1152
16.2 1130
16.22 1094
16.24 1157
16.26 1162
16.28 1238
16.3 1228
16.32 1204
16.34 1252
16.36 1206
16.38 1166
16.4 1230
16.42 1193
16.44 1198
16.46 1184
16.48 1173
16.5 1182
16.52 1285
16.54 1222
16.56 1194
16.58 1321
16.6 1246
16.62 1271
16.64 1298
16.66 1363
16.68 1262
16.7 1271
16.72 1337
16.74 1312
16.76 1364
16.78 1293
16.8 1347
16.82 1370
16.84 1376
16.86 1478
16.88 1462
16.9 1447
16.92 1493
16.94 1694
16.96 1791
16.98 2065
17 2164
17.02 2213
17.04 2218
17.06 1998
17.08 1731
17.1 1591
17.12 1383
17.14 1356
17.16 1435
17.18 1372
17.2 1358
17.22 1379
17.24 1385
17.26 1405
17.28 1362
17.3 1395
17.32 1444
17.34 1409
17.36 1381
17.38 1448
17.4 1411
17.42 1363
17.44 1399
17.46 1414
17.48 1459
17.5 1443
17.52 1411
17.54 1431
17.56 1430
17.58 1437
17.6 1376
17.62 1433
17.64 1447
17.66 1506
17.68 1438
17.7 1447
17.72 1439
17.74 1388
17.76 1455
17.78 1446
17.8 1432
17.82 1486
17.84 1542
17.86 1565
17.88 1464
17.9 1449
17.92 1521
17.94 1494
17.96 1510
17.98 1581
18 1549
18.02 1569
18.04 1523
18.06 1562
18.08 1538
18.1 1634
18.12 1530
18.14 1549
18.16 1553
18.18 1542
18.2 1552
18.22 1450
18.24 1611
18.26 1590
18.28 1553
18.3 1634
18.32 1622
18.34 1584
18.36 1606
18.38 1546
18.4 1656
18.42 1631
18.44 1710
18.46 1625
18.48 1639
18.5 1599
18.52 1754
18.54 1657
18.56 1613
18.58 1588
18.6 1603
18.62 1660
18.64 1738
18.66 1784
18.68 1771
18.7 1715
18.72 1777
18.74 1741
18.76 1738
18.78 1753
18.8 1795
18.82 1811
18.84 1768
18.86 1748
18.88 1777
18.9 1799
18.92 1783
18.94 1831
18.96 1806
18.98 1849
19 1882
19.02 1842
19.04 1814
19.06 1891
19.08 1961
19.1 1971
19.12 1992
19.14 2026
19.16 2013
19.18 1917
19.2 1878
19.22 1861
19.24 1896
19.26 1861
19.28 1829
19.3 1876
19.32 1878
19.34 1820
19.36 1934
19.38 1894
19.4 1958
19.42 2032
19.44 1971
19.46 2035
19.48 2102
19.5 2172
19.52 2024
19.54 2124
19.56 2207
19.58 2165
19.6 2013
19.62 1989
19.64 2033
19.66 2024
19.68 1929
19.7 1946
19.72 1888
19.74 1897
19.76 1870
19.78 1874
19.8 1935
19.82 2002
19.84 1999
19.86 2007
19.88 2028
19.9 1967
19.92 2004
19.94 1988
19.96 2046
19.98 1943
20 1929