File: xrd-UiO-67/pxrddata/52-12.ASC
3 5865
3.02 5369
3.04 4954
3.06 4689
3.08 4375
3.1 4108
3.12 3766
3.14 3386
3.16 3214
3.18 2928
3.2 2755
3.22 2549
3.24 2398
3.26 2135
3.28 1963
3.3 1799
3.32 1623
3.34 1486
3.36 1412
3.38 1394
3.4 1320
3.42 1312
3.44 1265
3.46 1208
3.48 1229
3.5 1188
3.52 1151
3.54 1125
3.56 1179
3.58 1129
3.6 1168
3.62 1104
3.64 1075
3.66 1126
3.68 1078
3.7 1096
3.72 1047
3.74 1103
3.76 1035
3.78 1059
3.8 1049
3.82 978
3.84 1044
3.86 1044
3.88 1004
3.9 953
3.92 1004
3.94 968
3.96 997
3.98 952
4 958
4.02 981
4.04 947
4.06 1005
4.08 940
4.1 980
4.12 968
4.14 929
4.16 936
4.18 871
4.2 963
4.22 885
4.24 930
4.26 884
4.28 877
4.3 830
4.32 889
4.34 826
4.36 848
4.38 841
4.4 770
4.42 852
4.44 805
4.46 772
4.48 744
4.5 773
4.52 810
4.54 779
4.56 727
4.58 753
4.6 763
4.62 758
4.64 752
4.66 713
4.68 731
4.7 771
4.72 792
4.74 802
4.76 773
4.78 771
4.8 781
4.82 798
4.84 775
4.86 752
4.88 730
4.9 800
4.92 818
4.94 819
4.96 802
4.98 891
5 889
5.02 904
5.04 896
5.06 875
5.08 941
5.1 981
5.12 1061
5.14 1029
5.16 997
5.18 1032
5.2 1103
5.22 1148
5.24 1186
5.26 1208
5.28 1302
5.3 1427
5.32 1486
5.34 1580
5.36 1718
5.38 1867
5.4 2104
5.42 2229
5.44 2546
5.46 2641
5.48 2530
5.5 2285
5.52 1895
5.54 1691
5.56 1647
5.58 1633
5.6 1661
5.62 1631
5.64 1664
5.66 1659
5.68 1719
5.7 1819
5.72 1835
5.74 1957
5.76 1937
5.78 1966
5.8 2033
5.82 1864
5.84 1737
5.86 1514
5.88 1227
5.9 1052
5.92 913
5.94 910
5.96 854
5.98 719
6 816
6.02 802
6.04 742
6.06 687
6.08 694
6.1 693
6.12 668
6.14 664
6.16 696
6.18 653
6.2 644
6.22 644
6.24 640
6.26 677
6.28 657
6.3 663
6.32 663
6.34 639
6.36 631
6.38 614
6.4 616
6.42 618
6.44 635
6.46 586
6.48 627
6.5 643
6.52 637
6.54 631
6.56 667
6.58 695
6.6 626
6.62 628
6.64 697
6.66 724
6.68 702
6.7 699
6.72 789
6.74 754
6.76 740
6.78 676
6.8 672
6.82 638
6.84 680
6.86 619
6.88 640
6.9 625
6.92 650
6.94 632
6.96 618
6.98 636
7 591
7.02 594
7.04 608
7.06 602
7.08 594
7.1 632
7.12 601
7.14 591
7.16 611
7.18 591
7.2 566
7.22 616
7.24 608
7.26 555
7.28 606
7.3 561
7.32 533
7.34 610
7.36 605
7.38 593
7.4 596
7.42 580
7.44 577
7.46 620
7.48 624
7.5 584
7.52 615
7.54 539
7.56 558
7.58 607
7.6 589
7.62 542
7.64 582
7.66 588
7.68 600
7.7 536
7.72 602
7.74 574
7.76 570
7.78 592
7.8 554
7.82 574
7.84 589
7.86 504
7.88 554
7.9 538
7.92 594
7.94 573
7.96 602
7.98 570
8 567
8.02 578
8.04 576
8.06 625
8.08 553
8.1 561
8.12 586
8.14 573
8.16 594
8.18 586
8.2 596
8.22 633
8.24 566
8.26 600
8.28 609
8.3 571
8.32 581
8.34 545
8.36 538
8.38 578
8.4 571
8.42 565
8.44 582
8.46 550
8.48 540
8.5 534
8.52 541
8.54 608
8.56 607
8.58 525
8.6 602
8.62 567
8.64 568
8.66 546
8.68 520
8.7 527
8.72 586
8.74 586
8.76 556
8.78 541
8.8 591
8.82 563
8.84 583
8.86 581
8.88 618
8.9 568
8.92 603
8.94 607
8.96 608
8.98 616
9 659
9.02 630
9.04 630
9.06 668
9.08 696
9.1 621
9.12 680
9.14 756
9.16 767
9.18 769
9.2 847
9.22 861
9.24 907
9.26 955
9.28 999
9.3 1064
9.32 1265
9.34 1399
9.36 1554
9.38 1499
9.4 1403
9.42 1088
9.44 886
9.46 722
9.48 707
9.5 632
9.52 613
9.54 616
9.56 641
9.58 634
9.6 602
9.62 637
9.64 583
9.66 598
9.68 620
9.7 606
9.72 575
9.74 628
9.76 590
9.78 568
9.8 595
9.82 608
9.84 602
9.86 582
9.88 639
9.9 637
9.92 562
9.94 603
9.96 617
9.98 627
10 607
10.02 651
10.04 637
10.06 612
10.08 590
10.1 658
10.12 682
10.14 665
10.16 653
10.18 714
10.2 716
10.22 694
10.24 652
10.26 690
10.28 644
10.3 652
10.32 685
10.34 598
10.36 594
10.38 624
10.4 610
10.42 578
10.44 583
10.46 596
10.48 611
10.5 600
10.52 622
10.54 626
10.56 604
10.58 631
10.6 642
10.62 648
10.64 631
10.66 691
10.68 694
10.7 738
10.72 783
10.74 809
10.76 890
10.78 960
10.8 954
10.82 1041
10.84 947
10.86 938
10.88 874
10.9 852
10.92 925
10.94 934
10.96 989
10.98 977
11 932
11.02 895
11.04 849
11.06 760
11.08 703
11.1 683
11.12 596
11.14 643
11.16 620
11.18 637
11.2 621
11.22 593
11.24 622
11.26 602
11.28 611
11.3 619
11.32 631
11.34 587
11.36 599
11.38 619
11.4 649
11.42 661
11.44 646
11.46 631
11.48 634
11.5 659
11.52 662
11.54 702
11.56 695
11.58 710
11.6 646
11.62 641
11.64 645
11.66 581
11.68 636
11.7 623
11.72 579
11.74 599
11.76 597
11.78 583
11.8 598
11.82 573
11.84 601
11.86 573
11.88 641
11.9 618
11.92 592
11.94 588
11.96 605
11.98 596
12 627
12.02 623
12.04 648
12.06 619
12.08 608
12.1 624
12.12 614
12.14 646
12.16 640
12.18 674
12.2 649
12.22 674
12.24 670
12.26 703
12.28 698
12.3 651
12.32 638
12.34 658
12.36 649
12.38 649
12.4 639
12.42 584
12.44 609
12.46 609
12.48 656
12.5 613
12.52 644
12.54 604
12.56 613
12.58 592
12.6 593
12.62 569
12.64 589
12.66 646
12.68 611
12.7 614
12.72 595
12.74 591
12.76 599
12.78 614
12.8 609
12.82 632
12.84 645
12.86 619
12.88 627
12.9 661
12.92 642
12.94 616
12.96 626
12.98 640
13 636
13.02 642
13.04 585
13.06 620
13.08 676
13.1 620
13.12 630
13.14 637
13.16 685
13.18 624
13.2 624
13.22 637
13.24 627
13.26 670
13.28 620
13.3 677
13.32 682
13.34 667
13.36 691
13.38 656
13.4 662
13.42 624
13.44 649
13.46 702
13.48 700
13.5 670
13.52 685
13.54 617
13.56 722
13.58 667
13.6 688
13.62 698
13.64 666
13.66 630
13.68 623
13.7 686
13.72 696
13.74 675
13.76 640
13.78 646
13.8 677
13.82 646
13.84 664
13.86 655
13.88 726
13.9 670
13.92 646
13.94 656
13.96 670
13.98 658
14 706
14.02 655
14.04 659
14.06 763
14.08 717
14.1 670
14.12 692
14.14 714
14.16 756
14.18 705
14.2 687
14.22 761
14.24 706
14.26 750
14.28 790
14.3 770
14.32 766
14.34 758
14.36 709
14.38 765
14.4 720
14.42 766
14.44 739
14.46 709
14.48 710
14.5 699
14.52 757
14.54 714
14.56 721
14.58 703
14.6 764
14.62 760
14.64 713
14.66 766
14.68 716
14.7 767
14.72 737
14.74 738
14.76 750
14.78 747
14.8 765
14.82 762
14.84 769
14.86 785
14.88 803
14.9 761
14.92 759
14.94 736
14.96 743
14.98 753
15 743
15.02 714
15.04 744
15.06 757
15.08 762
15.1 771
15.12 777
15.14 793
15.16 757
15.18 775
15.2 798
15.22 767
15.24 742
15.26 775
15.28 778
15.3 733
15.32 812
15.34 804
15.36 816
15.38 758
15.4 801
15.42 760
15.44 794
15.46 755
15.48 796
15.5 814
15.52 816
15.54 791
15.56 770
15.58 784
15.6 804
15.62 774
15.64 816
15.66 811
15.68 814
15.7 792
15.72 761
15.74 827
15.76 774
15.78 839
15.8 757
15.82 808
15.84 857
15.86 821
15.88 825
15.9 824
15.92 812
15.94 821
15.96 846
15.98 855
16 875
16.02 871
16.04 840
16.06 813
16.08 870
16.1 888
16.12 848
16.14 861
16.16 870
16.18 864
16.2 893
16.22 849
16.24 882
16.26 864
16.28 864
16.3 886
16.32 893
16.34 945
16.36 920
16.38 916
16.4 898
16.42 892
16.44 890
16.46 951
16.48 938
16.5 847
16.52 912
16.54 938
16.56 943
16.58 879
16.6 928
16.62 993
16.64 911
16.66 919
16.68 935
16.7 946
16.72 926
16.74 960
16.76 961
16.78 1024
16.8 988
16.82 971
16.84 981
16.86 953
16.88 1002
16.9 1018
16.92 1027
16.94 1100
16.96 1158
16.98 1147
17 1198
17.02 1184
17.04 1194
17.06 1209
17.08 1130
17.1 1085
17.12 1034
17.14 959
17.16 1006
17.18 1026
17.2 1029
17.22 976
17.24 975
17.26 1023
17.28 1010
17.3 1071
17.32 1110
17.34 1025
17.36 1032
17.38 1012
17.4 1046
17.42 1002
17.44 1025
17.46 1052
17.48 1103
17.5 1060
17.52 1008
17.54 1025
17.56 1065
17.58 1039
17.6 1050
17.62 1083
17.64 1073
17.66 1080
17.68 1097
17.7 1134
17.72 1125
17.74 1112
17.76 1121
17.78 1117
17.8 1038
17.82 1113
17.84 1105
17.86 1103
17.88 1098
17.9 1100
17.92 1128
17.94 1143
17.96 1202
17.98 1151
18 1138
18.02 1099
18.04 1148
18.06 1102
18.08 1135
18.1 1169
18.12 1168
18.14 1138
18.16 1128
18.18 1166
18.2 1147
18.22 1119
18.24 1173
18.26 1129
18.28 1110
18.3 1169
18.32 1127
18.34 1175
18.36 1157
18.38 1267
18.4 1204
18.42 1214
18.44 1215
18.46 1166
18.48 1237
18.5 1218
18.52 1194
18.54 1235
18.56 1239
18.58 1153
18.6 1238
18.62 1208
18.64 1221
18.66 1271
18.68 1276
18.7 1342
18.72 1290
18.74 1349
18.76 1320
18.78 1321
18.8 1335
18.82 1272
18.84 1379
18.86 1301
18.88 1324
18.9 1292
18.92 1310
18.94 1313
18.96 1326
18.98 1349
19 1353
19.02 1328
19.04 1384
19.06 1384
19.08 1396
19.1 1382
19.12 1418
19.14 1428
19.16 1404
19.18 1452
19.2 1407
19.22 1366
19.24 1388
19.26 1360
19.28 1473
19.3 1449
19.32 1381
19.34 1393
19.36 1422
19.38 1392
19.4 1454
19.42 1546
19.44 1538
19.46 1628
19.48 1628
19.5 1654
19.52 1587
19.54 1653
19.56 1549
19.58 1621
19.6 1599
19.62 1563
19.64 1483
19.66 1425
19.68 1507
19.7 1436
19.72 1490
19.74 1401
19.76 1464
19.78 1475
19.8 1493
19.82 1445
19.84 1526
19.86 1485
19.88 1495
19.9 1476
19.92 1513
19.94 1513
19.96 1510
19.98 1462
20 1486