File: xrd-UiO-67/pxrddata/52-3.ASC
3 5891
3.02 5541
3.04 5292
3.06 4863
3.08 4464
3.1 4138
3.12 3844
3.14 3644
3.16 3230
3.18 3127
3.2 2826
3.22 2633
3.24 2445
3.26 2265
3.28 2068
3.3 1951
3.32 1648
3.34 1536
3.36 1483
3.38 1510
3.4 1431
3.42 1417
3.44 1388
3.46 1394
3.48 1403
3.5 1293
3.52 1376
3.54 1294
3.56 1320
3.58 1261
3.6 1293
3.62 1291
3.64 1215
3.66 1224
3.68 1248
3.7 1283
3.72 1271
3.74 1270
3.76 1292
3.78 1287
3.8 1206
3.82 1178
3.84 1242
3.86 1186
3.88 1258
3.9 1309
3.92 1272
3.94 1282
3.96 1274
3.98 1262
4 1240
4.02 1283
4.04 1355
4.06 1263
4.08 1278
4.1 1305
4.12 1281
4.14 1250
4.16 1260
4.18 1239
4.2 1159
4.22 1146
4.24 1184
4.26 1130
4.28 1116
4.3 1152
4.32 1121
4.34 1079
4.36 1004
4.38 1079
4.4 1077
4.42 1105
4.44 1072
4.46 994
4.48 1052
4.5 999
4.52 1074
4.54 1075
4.56 1008
4.58 1032
4.6 1067
4.62 1042
4.64 1038
4.66 1113
4.68 1017
4.7 1078
4.72 1052
4.74 1065
4.76 1052
4.78 1157
4.8 1142
4.82 1150
4.84 1133
4.86 1146
4.88 1148
4.9 1181
4.92 1158
4.94 1115
4.96 1219
4.98 1282
5 1192
5.02 1267
5.04 1272
5.06 1311
5.08 1376
5.1 1375
5.12 1397
5.14 1473
5.16 1487
5.18 1587
5.2 1660
5.22 1770
5.24 1812
5.26 1893
5.28 1954
5.3 2188
5.32 2221
5.34 2411
5.36 2605
5.38 2920
5.4 3199
5.42 3630
5.44 3952
5.46 3920
5.48 3279
5.5 2713
5.52 2316
5.54 2189
5.56 2160
5.58 1989
5.6 2097
5.62 2187
5.64 2249
5.66 2276
5.68 2433
5.7 2561
5.72 2710
5.74 2757
5.76 3065
5.78 3359
5.8 3453
5.82 3265
5.84 2642
5.86 2205
5.88 1769
5.9 1398
5.92 1235
5.94 1157
5.96 1007
5.98 984
6 1009
6.02 925
6.04 908
6.06 926
6.08 865
6.1 914
6.12 863
6.14 870
6.16 874
6.18 862
6.2 841
6.22 848
6.24 831
6.26 835
6.28 848
6.3 809
6.32 833
6.34 877
6.36 837
6.38 825
6.4 797
6.42 759
6.44 772
6.46 812
6.48 820
6.5 865
6.52 812
6.54 852
6.56 802
6.58 873
6.6 846
6.62 841
6.64 860
6.66 893
6.68 877
6.7 933
6.72 941
6.74 907
6.76 960
6.78 978
6.8 937
6.82 942
6.84 944
6.86 843
6.88 815
6.9 794
6.92 764
6.94 779
6.96 784
6.98 779
7 763
7.02 720
7.04 760
7.06 756
7.08 764
7.1 735
7.12 744
7.14 762
7.16 720
7.18 753
7.2 748
7.22 721
7.24 753
7.26 786
7.28 764
7.3 731
7.32 715
7.34 777
7.36 691
7.38 748
7.4 713
7.42 720
7.44 746
7.46 701
7.48 725
7.5 713
7.52 696
7.54 726
7.56 702
7.58 711
7.6 721
7.62 686
7.64 713
7.66 705
7.68 743
7.7 719
7.72 763
7.74 718
7.76 718
7.78 736
7.8 729
7.82 674
7.84 770
7.86 743
7.88 749
7.9 734
7.92 761
7.94 705
7.96 701
7.98 762
8 730
8.02 724
8.04 757
8.06 742
8.08 742
8.1 757
8.12 704
8.14 755
8.16 755
8.18 741
8.2 750
8.22 734
8.24 727
8.26 747
8.28 716
8.3 759
8.32 734
8.34 743
8.36 714
8.38 719
8.4 765
8.42 720
8.44 751
8.46 740
8.48 730
8.5 769
8.52 742
8.54 743
8.56 728
8.58 740
8.6 715
8.62 738
8.64 753
8.66 817
8.68 711
8.7 759
8.72 752
8.74 776
8.76 732
8.78 782
8.8 786
8.82 723
8.84 799
8.86 716
8.88 762
8.9 758
8.92 799
8.94 798
8.96 773
8.98 833
9 847
9.02 776
9.04 832
9.06 897
9.08 887
9.1 875
9.12 922
9.14 986
9.16 953
9.18 1098
9.2 1137
9.22 1101
9.24 1226
9.26 1186
9.28 1424
9.3 1559
9.32 1726
9.34 1976
9.36 2114
9.38 1979
9.4 1568
9.42 1211
9.44 1056
9.46 951
9.48 840
9.5 844
9.52 852
9.54 823
9.56 786
9.58 806
9.6 814
9.62 792
9.64 851
9.66 777
9.68 777
9.7 783
9.72 796
9.74 815
9.76 834
9.78 822
9.8 782
9.82 822
9.84 770
9.86 810
9.88 801
9.9 842
9.92 848
9.94 815
9.96 774
9.98 829
10 797
10.02 815
10.04 842
10.06 864
10.08 884
10.1 816
10.12 870
10.14 934
10.16 932
10.18 1054
10.2 1002
10.22 1033
10.24 941
10.26 908
10.28 895
10.3 867
10.32 784
10.34 840
10.36 783
10.38 802
10.4 805
10.42 790
10.44 820
10.46 815
10.48 810
10.5 836
10.52 816
10.54 845
10.56 877
10.58 824
10.6 895
10.62 885
10.64 875
10.66 921
10.68 973
10.7 1033
10.72 992
10.74 1087
10.76 1261
10.78 1304
10.8 1372
10.82 1319
10.84 1254
10.86 1150
10.88 1129
10.9 1150
10.92 1198
10.94 1161
10.96 1222
10.98 1265
11 1265
11.02 1127
11.04 1076
11.06 1017
11.08 845
11.1 863
11.12 856
11.14 821
11.16 801
11.18 850
11.2 831
11.22 833
11.24 843
11.26 840
11.28 791
11.3 839
11.32 820
11.34 844
11.36 868
11.38 841
11.4 925
11.42 887
11.44 901
11.46 930
11.48 904
11.5 952
11.52 945
11.54 988
11.56 936
11.58 928
11.6 912
11.62 878
11.64 871
11.66 850
11.68 845
11.7 845
11.72 844
11.74 840
11.76 820
11.78 800
11.8 821
11.82 817
11.84 827
11.86 827
11.88 823
11.9 806
11.92 818
11.94 823
11.96 776
11.98 785
12 855
12.02 854
12.04 829
12.06 809
12.08 857
12.1 866
12.12 924
12.14 889
12.16 951
12.18 919
12.2 867
12.22 915
12.24 924
12.26 927
12.28 955
12.3 904
12.32 881
12.34 855
12.36 933
12.38 907
12.4 850
12.42 849
12.44 832
12.46 906
12.48 840
12.5 841
12.52 840
12.54 850
12.56 849
12.58 904
12.6 892
12.62 875
12.64 841
12.66 888
12.68 865
12.7 853
12.72 897
12.74 853
12.76 870
12.78 882
12.8 867
12.82 882
12.84 912
12.86 899
12.88 851
12.9 880
12.92 879
12.94 883
12.96 864
12.98 856
13 900
13.02 890
13.04 886
13.06 876
13.08 887
13.1 878
13.12 948
13.14 928
13.16 898
13.18 874
13.2 946
13.22 928
13.24 887
13.26 897
13.28 907
13.3 939
13.32 958
13.34 949
13.36 941
13.38 956
13.4 917
13.42 922
13.44 996
13.46 988
13.48 972
13.5 960
13.52 996
13.54 988
13.56 928
13.58 974
13.6 973
13.62 932
13.64 947
13.66 973
13.68 956
13.7 971
13.72 943
13.74 916
13.76 972
13.78 941
13.8 1004
13.82 949
13.84 985
13.86 959
13.88 964
13.9 994
13.92 946
13.94 1009
13.96 952
13.98 931
14 981
14.02 984
14.04 1047
14.06 979
14.08 940
14.1 993
14.12 965
14.14 1032
14.16 1008
14.18 1032
14.2 1083
14.22 1077
14.24 1078
14.26 1090
14.28 1067
14.3 1153
14.32 1091
14.34 1073
14.36 1055
14.38 1078
14.4 1077
14.42 1054
14.44 1101
14.46 1133
14.48 1006
14.5 1082
14.52 1037
14.54 1080
14.56 1079
14.58 1018
14.6 1003
14.62 1129
14.64 1020
14.66 1065
14.68 1081
14.7 1140
14.72 1107
14.74 1092
14.76 1089
14.78 1150
14.8 1146
14.82 1163
14.84 1103
14.86 1174
14.88 1153
14.9 1048
14.92 1101
14.94 1118
14.96 1204
14.98 1100
15 1068
15.02 1119
15.04 1164
15.06 1111
15.08 1200
15.1 1146
15.12 1168
15.14 1134
15.16 1158
15.18 1154
15.2 1203
15.22 1120
15.24 1190
15.26 1172
15.28 1164
15.3 1189
15.32 1203
15.34 1147
15.36 1185
15.38 1130
15.4 1189
15.42 1179
15.44 1202
15.46 1197
15.48 1193
15.5 1195
15.52 1182
15.54 1192
15.56 1237
15.58 1185
15.6 1228
15.62 1159
15.64 1229
15.66 1242
15.68 1103
15.7 1218
15.72 1209
15.74 1194
15.76 1219
15.78 1240
15.8 1240
15.82 1247
15.84 1254
15.86 1273
15.88 1286
15.9 1257
15.92 1311
15.94 1358
15.96 1256
15.98 1286
16 1270
16.02 1323
16.04 1297
16.06 1253
16.08 1228
16.1 1245
16.12 1363
16.14 1331
16.16 1362
16.18 1358
16.2 1361
16.22 1315
16.24 1370
16.26 1330
16.28 1336
16.3 1380
16.32 1338
16.34 1395
16.36 1403
16.38 1425
16.4 1382
16.42 1439
16.44 1430
16.46 1416
16.48 1418
16.5 1366
16.52 1411
16.54 1424
16.56 1413
16.58 1398
16.6 1395
16.62 1441
16.64 1420
16.66 1408
16.68 1431
16.7 1391
16.72 1458
16.74 1441
16.76 1464
16.78 1493
16.8 1430
16.82 1454
16.84 1479
16.86 1421
16.88 1439
16.9 1497
16.92 1476
16.94 1555
16.96 1475
16.98 1521
17 1514
17.02 1499
17.04 1517
17.06 1497
17.08 1573
17.1 1551
17.12 1512
17.14 1553
17.16 1598
17.18 1570
17.2 1519
17.22 1579
17.24 1613
17.26 1660
17.28 1612
17.3 1634
17.32 1624
17.34 1650
17.36 1642
17.38 1618
17.4 1579
17.42 1658
17.44 1689
17.46 1659
17.48 1637
17.5 1660
17.52 1721
17.54 1681
17.56 1577
17.58 1634
17.6 1701
17.62 1679
17.64 1698
17.66 1671
17.68 1675
17.7 1699
17.72 1685
17.74 1742
17.76 1741
17.78 1651
17.8 1736
17.82 1704
17.84 1708
17.86 1722
17.88 1705
17.9 1798
17.92 1728
17.94 1776
17.96 1699
17.98 1793
18 1782
18.02 1841
18.04 1742
18.06 1786
18.08 1781
18.1 1843
18.12 1858
18.14 1819
18.16 1779
18.18 1740
18.2 1753
18.22 1804
18.24 1832
18.26 1875
18.28 1834
18.3 1833
18.32 1789
18.34 1851
18.36 1807
18.38 1758
18.4 1872
18.42 1891
18.44 1840
18.46 1825
18.48 1850
18.5 1868
18.52 1829
18.54 1927
18.56 1894
18.58 1967
18.6 1996
18.62 1997
18.64 1964
18.66 2055
18.68 2002
18.7 2023
18.72 2027
18.74 2029
18.76 1959
18.78 2016
18.8 2043
18.82 2075
18.84 2048
18.86 1979
18.88 2053
18.9 2015
18.92 2037
18.94 1984
18.96 2112
18.98 2102
19 2047
19.02 2152
19.04 2037
19.06 2151
19.08 2186
19.1 2186
19.12 2268
19.14 2243
19.16 2195
19.18 2215
19.2 2135
19.22 2135
19.24 2126
19.26 2172
19.28 2208
19.3 2122
19.32 2207
19.34 2138
19.36 2188
19.38 2227
19.4 2253
19.42 2257
19.44 2289
19.46 2287
19.48 2366
19.5 2365
19.52 2327
19.54 2379
19.56 2422
19.58 2376
19.6 2388
19.62 2324
19.64 2227
19.66 2209
19.68 2199
19.7 2253
19.72 2186
19.74 2207
19.76 2194
19.78 2118
19.8 2173
19.82 2172
19.84 2224
19.86 2285
19.88 2258
19.9 2317
19.92 2225
19.94 2321
19.96 2267
19.98 2226
20 2250