File: xrd-UiO-67/pxrddata/52-6.ASC
3 6686
3.02 6122
3.04 5918
3.06 5396
3.08 4962
3.1 4654
3.12 4372
3.14 4104
3.16 3854
3.18 3536
3.2 3301
3.22 3067
3.24 2839
3.26 2635
3.28 2451
3.3 2317
3.32 2176
3.34 1970
3.36 1876
3.38 1896
3.4 1772
3.42 1752
3.44 1655
3.46 1696
3.48 1706
3.5 1750
3.52 1678
3.54 1668
3.56 1554
3.58 1509
3.6 1606
3.62 1528
3.64 1577
3.66 1502
3.68 1528
3.7 1478
3.72 1463
3.74 1488
3.76 1359
3.78 1413
3.8 1459
3.82 1400
3.84 1404
3.86 1350
3.88 1413
3.9 1394
3.92 1368
3.94 1407
3.96 1364
3.98 1298
4 1296
4.02 1353
4.04 1393
4.06 1391
4.08 1386
4.1 1417
4.12 1432
4.14 1463
4.16 1415
4.18 1360
4.2 1235
4.22 1249
4.24 1149
4.26 1146
4.28 1125
4.3 1057
4.32 1082
4.34 1097
4.36 1098
4.38 1069
4.4 1008
4.42 1032
4.44 999
4.46 1030
4.48 1013
4.5 976
4.52 1015
4.54 996
4.56 974
4.58 989
4.6 1000
4.62 924
4.64 951
4.66 991
4.68 988
4.7 997
4.72 948
4.74 935
4.76 919
4.78 940
4.8 1000
4.82 925
4.84 953
4.86 927
4.88 902
4.9 939
4.92 964
4.94 974
4.96 978
4.98 937
5 928
5.02 965
5.04 959
5.06 977
5.08 976
5.1 985
5.12 1013
5.14 1088
5.16 1000
5.18 1032
5.2 1022
5.22 1011
5.24 1044
5.26 1097
5.28 1117
5.3 1124
5.32 1172
5.34 1225
5.36 1276
5.38 1385
5.4 1479
5.42 1641
5.44 1717
5.46 1631
5.48 1389
5.5 1294
5.52 1226
5.54 1289
5.56 1302
5.58 1376
5.6 1434
5.62 1475
5.64 1582
5.66 1658
5.68 1758
5.7 1870
5.72 1999
5.74 2203
5.76 2539
5.78 3198
5.8 3574
5.82 3400
5.84 2474
5.86 1661
5.88 1358
5.9 1175
5.92 991
5.94 875
5.96 839
5.98 813
6 734
6.02 743
6.04 755
6.06 756
6.08 768
6.1 741
6.12 761
6.14 751
6.16 756
6.18 727
6.2 714
6.22 740
6.24 736
6.26 689
6.28 697
6.3 724
6.32 707
6.34 720
6.36 661
6.38 737
6.4 685
6.42 693
6.44 727
6.46 705
6.48 681
6.5 649
6.52 721
6.54 720
6.56 704
6.58 734
6.6 731
6.62 798
6.64 768
6.66 850
6.68 856
6.7 801
6.72 796
6.74 823
6.76 850
6.78 909
6.8 912
6.82 857
6.84 705
6.86 656
6.88 651
6.9 689
6.92 604
6.94 595
6.96 641
6.98 632
7 603
7.02 625
7.04 634
7.06 627
7.08 658
7.1 605
7.12 629
7.14 612
7.16 611
7.18 615
7.2 603
7.22 599
7.24 608
7.26 576
7.28 571
7.3 596
7.32 583
7.34 605
7.36 604
7.38 610
7.4 581
7.42 619
7.44 597
7.46 630
7.48 593
7.5 587
7.52 607
7.54 580
7.56 603
7.58 564
7.6 564
7.62 565
7.64 617
7.66 566
7.68 597
7.7 560
7.72 550
7.74 543
7.76 593
7.78 551
7.8 580
7.82 561
7.84 578
7.86 622
7.88 578
7.9 593
7.92 571
7.94 534
7.96 603
7.98 606
8 584
8.02 609
8.04 551
8.06 563
8.08 597
8.1 552
8.12 635
8.14 595
8.16 597
8.18 581
8.2 598
8.22 632
8.24 560
8.26 534
8.28 587
8.3 599
8.32 558
8.34 525
8.36 542
8.38 578
8.4 571
8.42 557
8.44 551
8.46 577
8.48 587
8.5 571
8.52 554
8.54 553
8.56 560
8.58 534
8.6 570
8.62 580
8.64 555
8.66 497
8.68 571
8.7 604
8.72 567
8.74 535
8.76 556
8.78 529
8.8 541
8.82 591
8.84 559
8.86 543
8.88 576
8.9 548
8.92 636
8.94 561
8.96 578
8.98 609
9 586
9.02 549
9.04 601
9.06 584
9.08 622
9.1 593
9.12 636
9.14 662
9.16 650
9.18 707
9.2 711
9.22 733
9.24 697
9.26 805
9.28 832
9.3 893
9.32 1062
9.34 1251
9.36 1413
9.38 1310
9.4 1038
9.42 787
9.44 705
9.46 629
9.48 608
9.5 615
9.52 561
9.54 562
9.56 558
9.58 548
9.6 549
9.62 560
9.64 564
9.66 538
9.68 570
9.7 547
9.72 536
9.74 575
9.76 566
9.78 612
9.8 549
9.82 535
9.84 560
9.86 573
9.88 558
9.9 509
9.92 559
9.94 559
9.96 566
9.98 552
10 579
10.02 614
10.04 580
10.06 610
10.08 599
10.1 616
10.12 661
10.14 676
10.16 690
10.18 682
10.2 784
10.22 774
10.24 726
10.26 649
10.28 669
10.3 593
10.32 545
10.34 568
10.36 556
10.38 562
10.4 571
10.42 516
10.44 526
10.46 515
10.48 556
10.5 585
10.52 569
10.54 574
10.56 548
10.58 556
10.6 553
10.62 535
10.64 570
10.66 609
10.68 611
10.7 644
10.72 596
10.74 636
10.76 697
10.78 695
10.8 755
10.82 757
10.84 710
10.86 736
10.88 729
10.9 766
10.92 815
10.94 878
10.96 935
10.98 1091
11 1034
11.02 989
11.04 772
11.06 676
11.08 601
11.1 568
11.12 587
11.14 522
11.16 532
11.18 573
11.2 551
11.22 500
11.24 565
11.26 597
11.28 575
11.3 605
11.32 582
11.34 606
11.36 656
11.38 581
11.4 620
11.42 617
11.44 629
11.46 650
11.48 743
11.5 742
11.52 747
11.54 760
11.56 723
11.58 725
11.6 625
11.62 579
11.64 569
11.66 500
11.68 543
11.7 556
11.72 520
11.74 569
11.76 544
11.78 548
11.8 533
11.82 531
11.84 525
11.86 556
11.88 486
11.9 541
11.92 562
11.94 494
11.96 515
11.98 520
12 534
12.02 527
12.04 547
12.06 570
12.08 582
12.1 571
12.12 585
12.14 564
12.16 626
12.18 647
12.2 656
12.22 637
12.24 677
12.26 597
12.28 602
12.3 593
12.32 551
12.34 574
12.36 557
12.38 555
12.4 550
12.42 544
12.44 553
12.46 564
12.48 557
12.5 564
12.52 585
12.54 571
12.56 529
12.58 547
12.6 557
12.62 526
12.64 552
12.66 556
12.68 498
12.7 541
12.72 547
12.74 553
12.76 516
12.78 501
12.8 559
12.82 511
12.84 584
12.86 525
12.88 533
12.9 564
12.92 546
12.94 534
12.96 545
12.98 530
13 568
13.02 558
13.04 585
13.06 507
13.08 553
13.1 580
13.12 576
13.14 566
13.16 550
13.18 578
13.2 589
13.22 589
13.24 598
13.26 556
13.28 571
13.3 581
13.32 598
13.34 610
13.36 601
13.38 607
13.4 596
13.42 593
13.44 564
13.46 595
13.48 559
13.5 561
13.52 609
13.54 614
13.56 607
13.58 583
13.6 591
13.62 553
13.64 568
13.66 586
13.68 591
13.7 543
13.72 606
13.74 583
13.76 545
13.78 550
13.8 588
13.82 573
13.84 576
13.86 549
13.88 571
13.9 563
13.92 559
13.94 593
13.96 585
13.98 578
14 576
14.02 578
14.04 619
14.06 555
14.08 569
14.1 574
14.12 613
14.14 562
14.16 597
14.18 565
14.2 612
14.22 609
14.24 626
14.26 578
14.28 665
14.3 631
14.32 639
14.34 619
14.36 669
14.38 660
14.4 651
14.42 622
14.44 668
14.46 668
14.48 613
14.5 612
14.52 584
14.54 578
14.56 619
14.58 622
14.6 560
14.62 668
14.64 580
14.66 610
14.68 607
14.7 618
14.72 645
14.74 630
14.76 604
14.78 650
14.8 654
14.82 674
14.84 744
14.86 723
14.88 660
14.9 665
14.92 593
14.94 618
14.96 617
14.98 609
15 638
15.02 644
15.04 636
15.06 651
15.08 683
15.1 620
15.12 593
15.14 615
15.16 659
15.18 681
15.2 660
15.22 652
15.24 666
15.26 663
15.28 639
15.3 660
15.32 687
15.34 660
15.36 678
15.38 658
15.4 685
15.42 640
15.44 654
15.46 648
15.48 707
15.5 638
15.52 637
15.54 697
15.56 651
15.58 662
15.6 636
15.62 671
15.64 640
15.66 623
15.68 660
15.7 676
15.72 646
15.74 658
15.76 709
15.78 673
15.8 690
15.82 698
15.84 668
15.86 696
15.88 705
15.9 629
15.92 708
15.94 730
15.96 683
15.98 697
16 719
16.02 691
16.04 737
16.06 704
16.08 709
16.1 724
16.12 703
16.14 706
16.16 755
16.18 768
16.2 748
16.22 746
16.24 736
16.26 802
16.28 731
16.3 766
16.32 804
16.34 759
16.36 798
16.38 798
16.4 747
16.42 767
16.44 755
16.46 781
16.48 743
16.5 757
16.52 764
16.54 761
16.56 750
16.58 747
16.6 723
16.62 776
16.64 756
16.66 737
16.68 739
16.7 794
16.72 820
16.74 773
16.76 785
16.78 714
16.8 819
16.82 787
16.84 812
16.86 833
16.88 840
16.9 843
16.92 891
16.94 875
16.96 951
16.98 989
17 1011
17.02 979
17.04 996
17.06 928
17.08 929
17.1 898
17.12 814
17.14 794
17.16 858
17.18 831
17.2 801
17.22 828
17.24 803
17.26 838
17.28 902
17.3 855
17.32 874
17.34 864
17.36 857
17.38 863
17.4 877
17.42 838
17.44 829
17.46 877
17.48 807
17.5 817
17.52 898
17.54 920
17.56 884
17.58 858
17.6 894
17.62 858
17.64 861
17.66 851
17.68 888
17.7 905
17.72 910
17.74 899
17.76 924
17.78 903
17.8 869
17.82 905
17.84 874
17.86 923
17.88 873
17.9 903
17.92 937
17.94 925
17.96 923
17.98 901
18 876
18.02 871
18.04 896
18.06 969
18.08 895
18.1 918
18.12 882
18.14 932
18.16 978
18.18 928
18.2 941
18.22 958
18.24 948
18.26 941
18.28 1000
18.3 965
18.32 968
18.34 910
18.36 943
18.38 1008
18.4 999
18.42 978
18.44 994
18.46 1036
18.48 974
18.5 992
18.52 959
18.54 990
18.56 987
18.58 994
18.6 976
18.62 1050
18.64 1027
18.66 1027
18.68 1036
18.7 1051
18.72 1099
18.74 1055
18.76 1049
18.78 1103
18.8 1098
18.82 1137
18.84 1081
18.86 1094
18.88 1106
18.9 1041
18.92 1080
18.94 1053
18.96 960
18.98 987
19 1064
19.02 1083
19.04 1105
19.06 1119
19.08 1174
19.1 1190
19.12 1305
19.14 1374
19.16 1293
19.18 1204
19.2 1251
19.22 1138
19.24 1150
19.26 1122
19.28 1127
19.3 1039
19.32 1123
19.34 1103
19.36 1095
19.38 1098
19.4 1147
19.42 1199
19.44 1167
19.46 1224
19.48 1258
19.5 1271
19.52 1266
19.54 1275
19.56 1276
19.58 1234
19.6 1338
19.62 1221
19.64 1233
19.66 1222
19.68 1232
19.7 1155
19.72 1145
19.74 1087
19.76 1155
19.78 1109
19.8 1198
19.82 1190
19.84 1163
19.86 1190
19.88 1250
19.9 1369
19.92 1341
19.94 1219
19.96 1188
19.98 1180
20 1203