File: xrd-UiO-67/pxrddata/52-9.ASC
3 6005
3.02 5530
3.04 5062
3.06 4859
3.08 4338
3.1 3984
3.12 3743
3.14 3622
3.16 3218
3.18 2971
3.2 2823
3.22 2606
3.24 2307
3.26 2178
3.28 1997
3.3 1872
3.32 1688
3.34 1607
3.36 1483
3.38 1424
3.4 1429
3.42 1335
3.44 1308
3.46 1280
3.48 1361
3.5 1249
3.52 1233
3.54 1261
3.56 1206
3.58 1186
3.6 1169
3.62 1211
3.64 1183
3.66 1181
3.68 1149
3.7 1170
3.72 1117
3.74 1095
3.76 1153
3.78 1111
3.8 1116
3.82 1144
3.84 1135
3.86 1043
3.88 1082
3.9 1087
3.92 1095
3.94 1072
3.96 1052
3.98 1039
4 1058
4.02 1118
4.04 1065
4.06 1115
4.08 1052
4.1 1019
4.12 1062
4.14 1005
4.16 1021
4.18 962
4.2 942
4.22 984
4.24 972
4.26 996
4.28 875
4.3 916
4.32 917
4.34 983
4.36 885
4.38 882
4.4 922
4.42 900
4.44 891
4.46 885
4.48 837
4.5 892
4.52 864
4.54 822
4.56 807
4.58 844
4.6 843
4.62 819
4.64 797
4.66 820
4.68 794
4.7 816
4.72 813
4.74 864
4.76 850
4.78 840
4.8 854
4.82 846
4.84 874
4.86 807
4.88 892
4.9 913
4.92 843
4.94 904
4.96 878
4.98 841
5 897
5.02 903
5.04 843
5.06 874
5.08 889
5.1 916
5.12 960
5.14 939
5.16 1010
5.18 1016
5.2 1060
5.22 1165
5.24 1112
5.26 1172
5.28 1211
5.3 1284
5.32 1303
5.34 1371
5.36 1532
5.38 1614
5.4 1850
5.42 1971
5.44 2211
5.46 2137
5.48 1744
5.5 1570
5.52 1410
5.54 1405
5.56 1375
5.58 1414
5.6 1389
5.62 1471
5.64 1516
5.66 1551
5.68 1633
5.7 1663
5.72 1779
5.74 1912
5.76 2006
5.78 2090
5.8 2087
5.82 1848
5.84 1585
5.86 1314
5.88 1105
5.9 960
5.92 871
5.94 854
5.96 827
5.98 796
6 814
6.02 764
6.04 836
6.06 759
6.08 750
6.1 770
6.12 714
6.14 788
6.16 721
6.18 728
6.2 745
6.22 765
6.24 759
6.26 729
6.28 729
6.3 770
6.32 728
6.34 750
6.36 813
6.38 732
6.4 744
6.42 774
6.44 781
6.46 750
6.48 740
6.5 748
6.52 748
6.54 761
6.56 750
6.58 756
6.6 800
6.62 787
6.64 764
6.66 793
6.68 799
6.7 781
6.72 797
6.74 802
6.76 864
6.78 818
6.8 800
6.82 769
6.84 766
6.86 795
6.88 724
6.9 702
6.92 707
6.94 713
6.96 698
6.98 760
7 696
7.02 738
7.04 698
7.06 671
7.08 707
7.1 698
7.12 754
7.14 746
7.16 675
7.18 732
7.2 722
7.22 717
7.24 685
7.26 667
7.28 699
7.3 678
7.32 715
7.34 687
7.36 695
7.38 712
7.4 724
7.42 693
7.44 683
7.46 724
7.48 736
7.5 731
7.52 723
7.54 722
7.56 677
7.58 707
7.6 739
7.62 754
7.64 701
7.66 708
7.68 681
7.7 714
7.72 725
7.74 724
7.76 721
7.78 766
7.8 747
7.82 690
7.84 692
7.86 760
7.88 700
7.9 707
7.92 713
7.94 734
7.96 745
7.98 726
8 710
8.02 721
8.04 756
8.06 725
8.08 690
8.1 755
8.12 707
8.14 771
8.16 698
8.18 705
8.2 757
8.22 757
8.24 727
8.26 733
8.28 719
8.3 668
8.32 688
8.34 725
8.36 711
8.38 734
8.4 719
8.42 799
8.44 723
8.46 775
8.48 765
8.5 745
8.52 737
8.54 702
8.56 731
8.58 743
8.6 738
8.62 708
8.64 736
8.66 744
8.68 742
8.7 718
8.72 763
8.74 735
8.76 744
8.78 726
8.8 794
8.82 779
8.84 765
8.86 728
8.88 755
8.9 736
8.92 727
8.94 723
8.96 766
8.98 773
9 785
9.02 777
9.04 789
9.06 810
9.08 815
9.1 821
9.12 862
9.14 793
9.16 900
9.18 889
9.2 885
9.22 929
9.24 940
9.26 1018
9.28 1066
9.3 1145
9.32 1297
9.34 1348
9.36 1490
9.38 1361
9.4 1161
9.42 919
9.44 867
9.46 849
9.48 782
9.5 776
9.52 768
9.54 795
9.56 835
9.58 767
9.6 764
9.62 782
9.64 751
9.66 812
9.68 832
9.7 756
9.72 740
9.74 765
9.76 812
9.78 774
9.8 789
9.82 777
9.84 803
9.86 798
9.88 731
9.9 763
9.92 755
9.94 843
9.96 783
9.98 829
10 801
10.02 828
10.04 832
10.06 775
10.08 849
10.1 844
10.12 855
10.14 859
10.16 843
10.18 936
10.2 910
10.22 945
10.24 864
10.26 849
10.28 775
10.3 785
10.32 775
10.34 798
10.36 803
10.38 793
10.4 732
10.42 754
10.44 779
10.46 839
10.48 823
10.5 775
10.52 833
10.54 822
10.56 802
10.58 858
10.6 834
10.62 864
10.64 816
10.66 842
10.68 870
10.7 890
10.72 903
10.74 914
10.76 998
10.78 1058
10.8 1014
10.82 1021
10.84 984
10.86 986
10.88 1000
10.9 985
10.92 1029
10.94 1069
10.96 1071
10.98 1077
11 1057
11.02 1012
11.04 935
11.06 831
11.08 815
11.1 847
11.12 830
11.14 829
11.16 786
11.18 814
11.2 841
11.22 809
11.24 814
11.26 873
11.28 846
11.3 818
11.32 832
11.34 845
11.36 796
11.38 863
11.4 855
11.42 854
11.44 896
11.46 887
11.48 859
11.5 911
11.52 880
11.54 886
11.56 852
11.58 868
11.6 872
11.62 841
11.64 867
11.66 840
11.68 847
11.7 864
11.72 821
11.74 839
11.76 850
11.78 894
11.8 846
11.82 779
11.84 818
11.86 858
11.88 870
11.9 882
11.92 839
11.94 849
11.96 800
11.98 859
12 858
12.02 893
12.04 864
12.06 892
12.08 871
12.1 852
12.12 896
12.14 935
12.16 853
12.18 850
12.2 958
12.22 841
12.24 899
12.26 933
12.28 926
12.3 904
12.32 903
12.34 909
12.36 904
12.38 887
12.4 848
12.42 909
12.44 973
12.46 929
12.48 877
12.5 867
12.52 850
12.54 937
12.56 916
12.58 819
12.6 908
12.62 901
12.64 844
12.66 900
12.68 885
12.7 938
12.72 929
12.74 897
12.76 907
12.78 941
12.8 927
12.82 907
12.84 913
12.86 931
12.88 928
12.9 935
12.92 900
12.94 912
12.96 928
12.98 966
13 966
13.02 907
13.04 968
13.06 942
13.08 944
13.1 904
13.12 933
13.14 926
13.16 966
13.18 960
13.2 950
13.22 924
13.24 1003
13.26 884
13.28 905
13.3 898
13.32 967
13.34 1010
13.36 1035
13.38 991
13.4 968
13.42 985
13.44 984
13.46 952
13.48 962
13.5 1039
13.52 1019
13.54 1010
13.56 989
13.58 986
13.6 1012
13.62 960
13.64 994
13.66 985
13.68 971
13.7 971
13.72 963
13.74 959
13.76 975
13.78 928
13.8 1067
13.82 1005
13.84 988
13.86 994
13.88 1016
13.9 1007
13.92 1093
13.94 977
13.96 1070
13.98 984
14 1094
14.02 1072
14.04 1078
14.06 1061
14.08 1138
14.1 1075
14.12 1061
14.14 1043
14.16 1110
14.18 1041
14.2 1067
14.22 1075
14.24 1108
14.26 1078
14.28 1126
14.3 1072
14.32 1069
14.34 1107
14.36 1080
14.38 1167
14.4 1123
14.42 1155
14.44 1153
14.46 1105
14.48 1166
14.5 1128
14.52 1170
14.54 1131
14.56 1120
14.58 1107
14.6 1179
14.62 1050
14.64 1078
14.66 1121
14.68 1146
14.7 1222
14.72 1159
14.74 1178
14.76 1235
14.78 1177
14.8 1171
14.82 1182
14.84 1220
14.86 1142
14.88 1150
14.9 1200
14.92 1183
14.94 1168
14.96 1125
14.98 1176
15 1194
15.02 1173
15.04 1233
15.06 1193
15.08 1274
15.1 1249
15.12 1185
15.14 1201
15.16 1245
15.18 1223
15.2 1191
15.22 1257
15.24 1257
15.26 1243
15.28 1204
15.3 1216
15.32 1227
15.34 1269
15.36 1142
15.38 1250
15.4 1240
15.42 1282
15.44 1293
15.46 1244
15.48 1278
15.5 1281
15.52 1307
15.54 1320
15.56 1282
15.58 1332
15.6 1269
15.62 1317
15.64 1343
15.66 1331
15.68 1344
15.7 1344
15.72 1267
15.74 1385
15.76 1409
15.78 1357
15.8 1348
15.82 1273
15.84 1360
15.86 1285
15.88 1287
15.9 1353
15.92 1397
15.94 1346
15.96 1357
15.98 1395
16 1365
16.02 1371
16.04 1369
16.06 1384
16.08 1388
16.1 1414
16.12 1473
16.14 1491
16.16 1475
16.18 1454
16.2 1507
16.22 1515
16.24 1394
16.26 1442
16.28 1464
16.3 1454
16.32 1475
16.34 1481
16.36 1522
16.38 1510
16.4 1499
16.42 1469
16.44 1472
16.46 1521
16.48 1566
16.5 1512
16.52 1624
16.54 1641
16.56 1540
16.58 1562
16.6 1529
16.62 1546
16.64 1502
16.66 1505
16.68 1553
16.7 1561
16.72 1580
16.74 1624
16.76 1577
16.78 1595
16.8 1599
16.82 1580
16.84 1645
16.86 1717
16.88 1643
16.9 1730
16.92 1733
16.94 1803
16.96 1921
16.98 1992
17 1995
17.02 1970
17.04 2100
17.06 2054
17.08 2018
17.1 1839
17.12 1837
17.14 1766
17.16 1732
17.18 1659
17.2 1711
17.22 1738
17.24 1728
17.26 1781
17.28 1747
17.3 1755
17.32 1802
17.34 1724
17.36 1796
17.38 1815
17.4 1819
17.42 1831
17.44 1727
17.46 1822
17.48 1752
17.5 1789
17.52 1873
17.54 1847
17.56 1854
17.58 1827
17.6 1770
17.62 1840
17.64 1830
17.66 1842
17.68 1852
17.7 1934
17.72 1860
17.74 1932
17.76 1806
17.78 1917
17.8 1893
17.82 1960
17.84 1942
17.86 1878
17.88 1988
17.9 1914
17.92 1944
17.94 1939
17.96 1999
17.98 1924
18 1949
18.02 1955
18.04 1975
18.06 2017
18.08 1990
18.1 2021
18.12 1952
18.14 1990
18.16 2031
18.18 2097
18.2 2098
18.22 2064
18.24 2007
18.26 2019
18.28 2063
18.3 2118
18.32 2004
18.34 2049
18.36 2004
18.38 2097
18.4 2094
18.42 2085
18.44 2105
18.46 2139
18.48 2142
18.5 2119
18.52 2149
18.54 2220
18.56 2234
18.58 2190
18.6 2151
18.62 2166
18.64 2210
18.66 2212
18.68 2202
18.7 2208
18.72 2241
18.74 2229
18.76 2214
18.78 2255
18.8 2224
18.82 2261
18.84 2216
18.86 2328
18.88 2305
18.9 2284
18.92 2266
18.94 2247
18.96 2334
18.98 2238
19 2302
19.02 2337
19.04 2424
19.06 2438
19.08 2388
19.1 2296
19.12 2434
19.14 2513
19.16 2403
19.18 2464
19.2 2453
19.22 2437
19.24 2447
19.26 2388
19.28 2365
19.3 2400
19.32 2454
19.34 2376
19.36 2446
19.38 2412
19.4 2454
19.42 2516
19.44 2552
19.46 2555
19.48 2530
19.5 2439
19.52 2610
19.54 2600
19.56 2638
19.58 2573
19.6 2585
19.62 2563
19.64 2547
19.66 2556
19.68 2511
19.7 2505
19.72 2458
19.74 2477
19.76 2567
19.78 2524
19.8 2598
19.82 2599
19.84 2474
19.86 2537
19.88 2570
19.9 2579
19.92 2579
19.94 2546
19.96 2568
19.98 2590
20 2560