File: xrd-UiO-67/pxrddata/53-10.ASC
3 2088
3.02 1899
3.04 1930
3.06 1998
3.08 1759
3.1 1818
3.12 1699
3.14 1778
3.16 1734
3.18 1577
3.2 1622
3.22 1612
3.24 1509
3.26 1646
3.28 1607
3.3 1572
3.32 1599
3.34 1536
3.36 1523
3.38 1515
3.4 1430
3.42 1494
3.44 1394
3.46 1427
3.48 1364
3.5 1440
3.52 1317
3.54 1374
3.56 1372
3.58 1375
3.6 1356
3.62 1288
3.64 1355
3.66 1360
3.68 1305
3.7 1227
3.72 1240
3.74 1244
3.76 1192
3.78 1226
3.8 1261
3.82 1242
3.84 1201
3.86 1215
3.88 1224
3.9 1152
3.92 1150
3.94 1167
3.96 1252
3.98 1176
4 1138
4.02 1127
4.04 1119
4.06 1165
4.08 1147
4.1 1087
4.12 1098
4.14 1098
4.16 1050
4.18 1165
4.2 1075
4.22 1045
4.24 1059
4.26 979
4.28 1047
4.3 1006
4.32 1021
4.34 1033
4.36 1006
4.38 955
4.4 980
4.42 1020
4.44 895
4.46 918
4.48 925
4.5 931
4.52 896
4.54 945
4.56 931
4.58 867
4.6 884
4.62 934
4.64 915
4.66 912
4.68 915
4.7 874
4.72 946
4.74 910
4.76 888
4.78 934
4.8 915
4.82 914
4.84 903
4.86 911
4.88 896
4.9 872
4.92 865
4.94 867
4.96 869
4.98 909
5 932
5.02 965
5.04 923
5.06 867
5.08 988
5.1 993
5.12 926
5.14 1013
5.16 996
5.18 1001
5.2 996
5.22 1107
5.24 1072
5.26 1076
5.28 1066
5.3 1108
5.32 1119
5.34 1140
5.36 1252
5.38 1210
5.4 1266
5.42 1364
5.44 1508
5.46 1574
5.48 1634
5.5 1587
5.52 1363
5.54 1315
5.56 1265
5.58 1335
5.6 1239
5.62 1312
5.64 1363
5.66 1440
5.68 1481
5.7 1531
5.72 1545
5.74 1709
5.76 1739
5.78 1940
5.8 1948
5.82 1998
5.84 1848
5.86 1706
5.88 1548
5.9 1290
5.92 1071
5.94 942
5.96 883
5.98 897
6 799
6.02 774
6.04 780
6.06 705
6.08 718
6.1 692
6.12 715
6.14 747
6.16 640
6.18 661
6.2 699
6.22 738
6.24 699
6.26 694
6.28 680
6.3 651
6.32 687
6.34 676
6.36 656
6.38 646
6.4 676
6.42 649
6.44 671
6.46 640
6.48 647
6.5 620
6.52 668
6.54 653
6.56 631
6.58 611
6.6 653
6.62 694
6.64 707
6.66 716
6.68 676
6.7 693
6.72 717
6.74 668
6.76 667
6.78 675
6.8 741
6.82 683
6.84 694
6.86 671
6.88 695
6.9 620
6.92 639
6.94 619
6.96 592
6.98 602
7 632
7.02 549
7.04 544
7.06 591
7.08 551
7.1 594
7.12 562
7.14 574
7.16 582
7.18 550
7.2 567
7.22 552
7.24 545
7.26 526
7.28 542
7.3 575
7.32 543
7.34 569
7.36 569
7.38 560
7.4 595
7.42 576
7.44 610
7.46 522
7.48 564
7.5 547
7.52 547
7.54 569
7.56 546
7.58 547
7.6 540
7.62 518
7.64 566
7.66 578
7.68 528
7.7 535
7.72 536
7.74 540
7.76 575
7.78 505
7.8 512
7.82 539
7.84 557
7.86 574
7.88 640
7.9 558
7.92 532
7.94 537
7.96 543
7.98 564
8 578
8.02 558
8.04 546
8.06 576
8.08 559
8.1 552
8.12 604
8.14 557
8.16 559
8.18 513
8.2 561
8.22 563
8.24 545
8.26 563
8.28 592
8.3 587
8.32 586
8.34 604
8.36 555
8.38 563
8.4 598
8.42 594
8.44 555
8.46 554
8.48 540
8.5 524
8.52 548
8.54 548
8.56 554
8.58 576
8.6 542
8.62 516
8.64 526
8.66 520
8.68 508
8.7 561
8.72 531
8.74 555
8.76 548
8.78 507
8.8 551
8.82 565
8.84 584
8.86 565
8.88 600
8.9 558
8.92 548
8.94 581
8.96 558
8.98 594
9 588
9.02 637
9.04 608
9.06 622
9.08 586
9.1 626
9.12 601
9.14 671
9.16 641
9.18 664
9.2 705
9.22 693
9.24 738
9.26 742
9.28 797
9.3 831
9.32 937
9.34 1018
9.36 1059
9.38 1150
9.4 1138
9.42 1041
9.44 873
9.46 727
9.48 657
9.5 623
9.52 613
9.54 627
9.56 623
9.58 654
9.6 599
9.62 575
9.64 590
9.66 602
9.68 581
9.7 648
9.72 615
9.74 607
9.76 613
9.78 643
9.8 591
9.82 635
9.84 621
9.86 573
9.88 615
9.9 618
9.92 597
9.94 674
9.96 591
9.98 663
10 647
10.02 646
10.04 629
10.06 642
10.08 614
10.1 629
10.12 663
10.14 711
10.16 709
10.18 704
10.2 743
10.22 715
10.24 652
10.26 678
10.28 692
10.3 627
10.32 647
10.34 645
10.36 596
10.38 600
10.4 650
10.42 581
10.44 559
10.46 601
10.48 567
10.5 597
10.52 613
10.54 614
10.56 585
10.58 622
10.6 640
10.62 621
10.64 624
10.66 621
10.68 655
10.7 664
10.72 653
10.74 632
10.76 670
10.78 711
10.8 757
10.82 731
10.84 777
10.86 799
10.88 779
10.9 765
10.92 783
10.94 757
10.96 854
10.98 868
11 833
11.02 863
11.04 807
11.06 725
11.08 682
11.1 625
11.12 616
11.14 611
11.16 659
11.18 605
11.2 548
11.22 556
11.24 582
11.26 638
11.28 587
11.3 597
11.32 591
11.34 556
11.36 576
11.38 608
11.4 599
11.42 649
11.44 644
11.46 627
11.48 613
11.5 648
11.52 587
11.54 672
11.56 675
11.58 637
11.6 663
11.62 645
11.64 645
11.66 607
11.68 560
11.7 601
11.72 557
11.74 609
11.76 557
11.78 580
11.8 603
11.82 543
11.84 596
11.86 551
11.88 540
11.9 576
11.92 558
11.94 595
11.96 582
11.98 622
12 570
12.02 589
12.04 563
12.06 594
12.08 591
12.1 583
12.12 602
12.14 592
12.16 633
12.18 590
12.2 591
12.22 624
12.24 588
12.26 599
12.28 630
12.3 626
12.32 644
12.34 581
12.36 627
12.38 606
12.4 597
12.42 621
12.44 559
12.46 587
12.48 573
12.5 594
12.52 562
12.54 600
12.56 609
12.58 601
12.6 581
12.62 584
12.64 542
12.66 580
12.68 605
12.7 630
12.72 559
12.74 580
12.76 561
12.78 561
12.8 587
12.82 580
12.84 615
12.86 588
12.88 596
12.9 574
12.92 531
12.94 622
12.96 608
12.98 561
13 578
13.02 585
13.04 569
13.06 558
13.08 566
13.1 579
13.12 598
13.14 604
13.16 615
13.18 580
13.2 586
13.22 622
13.24 579
13.26 620
13.28 624
13.3 685
13.32 598
13.34 627
13.36 650
13.38 656
13.4 602
13.42 635
13.44 650
13.46 604
13.48 589
13.5 637
13.52 587
13.54 617
13.56 576
13.58 622
13.6 588
13.62 626
13.64 630
13.66 623
13.68 577
13.7 599
13.72 598
13.74 616
13.76 651
13.78 618
13.8 658
13.82 598
13.84 639
13.86 579
13.88 608
13.9 638
13.92 612
13.94 651
13.96 596
13.98 627
14 608
14.02 608
14.04 612
14.06 639
14.08 651
14.1 642
14.12 646
14.14 625
14.16 653
14.18 652
14.2 668
14.22 630
14.24 656
14.26 684
14.28 689
14.3 654
14.32 700
14.34 697
14.36 690
14.38 706
14.4 695
14.42 744
14.44 697
14.46 683
14.48 732
14.5 689
14.52 676
14.54 644
14.56 674
14.58 735
14.6 696
14.62 715
14.64 717
14.66 675
14.68 688
14.7 675
14.72 668
14.74 726
14.76 718
14.78 754
14.8 712
14.82 729
14.84 746
14.86 740
14.88 735
14.9 739
14.92 756
14.94 684
14.96 730
14.98 669
15 758
15.02 737
15.04 739
15.06 761
15.08 720
15.1 704
15.12 735
15.14 689
15.16 687
15.18 764
15.2 731
15.22 735
15.24 780
15.26 788
15.28 769
15.3 763
15.32 749
15.34 730
15.36 711
15.38 733
15.4 763
15.42 763
15.44 712
15.46 756
15.48 735
15.5 763
15.52 709
15.54 774
15.56 732
15.58 747
15.6 710
15.62 725
15.64 722
15.66 767
15.68 793
15.7 832
15.72 748
15.74 771
15.76 744
15.78 774
15.8 787
15.82 749
15.84 803
15.86 767
15.88 767
15.9 816
15.92 804
15.94 810
15.96 748
15.98 794
16 805
16.02 829
16.04 870
16.06 787
16.08 777
16.1 795
16.12 834
16.14 838
16.16 800
16.18 797
16.2 797
16.22 832
16.24 865
16.26 822
16.28 855
16.3 837
16.32 894
16.34 824
16.36 886
16.38 844
16.4 848
16.42 896
16.44 858
16.46 870
16.48 878
16.5 870
16.52 862
16.54 885
16.56 876
16.58 880
16.6 863
16.62 876
16.64 859
16.66 869
16.68 905
16.7 929
16.72 959
16.74 872
16.76 943
16.78 960
16.8 929
16.82 939
16.84 975
16.86 957
16.88 1015
16.9 1161
16.92 1338
16.94 1462
16.96 1579
16.98 1540
17 1617
17.02 1527
17.04 1375
17.06 1299
17.08 1138
17.1 1017
17.12 993
17.14 959
17.16 1006
17.18 939
17.2 943
17.22 984
17.24 976
17.26 953
17.28 967
17.3 954
17.32 1009
17.34 996
17.36 1003
17.38 1003
17.4 982
17.42 1035
17.44 1008
17.46 970
17.48 948
17.5 977
17.52 994
17.54 1004
17.56 1000
17.58 1009
17.6 1034
17.62 1023
17.64 1028
17.66 1002
17.68 998
17.7 1007
17.72 984
17.74 1027
17.76 1046
17.78 966
17.8 1049
17.82 1090
17.84 1036
17.86 1027
17.88 1073
17.9 1092
17.92 1084
17.94 1064
17.96 1049
17.98 1075
18 1050
18.02 1078
18.04 1087
18.06 1087
18.08 1080
18.1 1104
18.12 1044
18.14 1035
18.16 1080
18.18 1098
18.2 1030
18.22 1031
18.24 1105
18.26 1108
18.28 1098
18.3 1121
18.32 1124
18.34 1096
18.36 1140
18.38 1108
18.4 1151
18.42 1048
18.44 1117
18.46 1161
18.48 1080
18.5 1186
18.52 1178
18.54 1137
18.56 1203
18.58 1140
18.6 1216
18.62 1124
18.64 1256
18.66 1214
18.68 1189
18.7 1193
18.72 1227
18.74 1183
18.76 1171
18.78 1207
18.8 1191
18.82 1141
18.84 1271
18.86 1215
18.88 1208
18.9 1196
18.92 1282
18.94 1332
18.96 1231
18.98 1263
19 1205
19.02 1257
19.04 1231
19.06 1264
19.08 1408
19.1 1255
19.12 1356
19.14 1394
19.16 1326
19.18 1349
19.2 1344
19.22 1357
19.24 1350
19.26 1295
19.28 1333
19.3 1291
19.32 1327
19.34 1262
19.36 1384
19.38 1334
19.4 1365
19.42 1326
19.44 1371
19.46 1300
19.48 1409
19.5 1396
19.52 1416
19.54 1361
19.56 1476
19.58 1433
19.6 1472
19.62 1406
19.64 1531
19.66 1418
19.68 1379
19.7 1395
19.72 1366
19.74 1309
19.76 1365
19.78 1312
19.8 1365
19.82 1330
19.84 1330
19.86 1367
19.88 1414
19.9 1429
19.92 1406
19.94 1414
19.96 1403
19.98 1437
20 1484