File: xrd-UiO-67/pxrddata/53-11.ASC
3 1646
3.02 1555
3.04 1544
3.06 1483
3.08 1404
3.1 1417
3.12 1356
3.14 1315
3.16 1331
3.18 1326
3.2 1332
3.22 1255
3.24 1279
3.26 1239
3.28 1230
3.3 1271
3.32 1233
3.34 1186
3.36 1261
3.38 1148
3.4 1223
3.42 1198
3.44 1102
3.46 1098
3.48 1129
3.5 1121
3.52 1091
3.54 1111
3.56 1075
3.58 1113
3.6 1075
3.62 1060
3.64 1066
3.66 1061
3.68 1053
3.7 1051
3.72 970
3.74 1061
3.76 1020
3.78 1022
3.8 1002
3.82 1097
3.84 1026
3.86 982
3.88 1075
3.9 1073
3.92 1026
3.94 1068
3.96 1042
3.98 997
4 1066
4.02 1042
4.04 1073
4.06 1038
4.08 1092
4.1 1037
4.12 1067
4.14 1064
4.16 1026
4.18 1046
4.2 1020
4.22 982
4.24 996
4.26 935
4.28 914
4.3 917
4.32 924
4.34 925
4.36 836
4.38 815
4.4 838
4.42 831
4.44 834
4.46 818
4.48 840
4.5 824
4.52 782
4.54 816
4.56 805
4.58 790
4.6 788
4.62 780
4.64 787
4.66 804
4.68 831
4.7 778
4.72 751
4.74 782
4.76 818
4.78 808
4.8 781
4.82 801
4.84 846
4.86 834
4.88 847
4.9 792
4.92 811
4.94 861
4.96 805
4.98 820
5 897
5.02 858
5.04 895
5.06 955
5.08 908
5.1 923
5.12 950
5.14 1012
5.16 1067
5.18 1037
5.2 1070
5.22 1088
5.24 1131
5.26 1239
5.28 1247
5.3 1319
5.32 1322
5.34 1442
5.36 1497
5.38 1542
5.4 1705
5.42 1973
5.44 2170
5.46 2329
5.48 2454
5.5 2446
5.52 2120
5.54 1884
5.56 1786
5.58 1782
5.6 1745
5.62 1798
5.64 1838
5.66 1958
5.68 1937
5.7 2114
5.72 2272
5.74 2512
5.76 2708
5.78 2785
5.8 2969
5.82 3163
5.84 3070
5.86 2737
5.88 2280
5.9 1781
5.92 1465
5.94 1206
5.96 1042
5.98 906
6 900
6.02 858
6.04 809
6.06 806
6.08 729
6.1 739
6.12 740
6.14 704
6.16 707
6.18 701
6.2 683
6.22 706
6.24 691
6.26 653
6.28 678
6.3 674
6.32 656
6.34 612
6.36 658
6.38 648
6.4 669
6.42 697
6.44 632
6.46 611
6.48 643
6.5 704
6.52 670
6.54 652
6.56 669
6.58 719
6.6 690
6.62 691
6.64 669
6.66 708
6.68 736
6.7 731
6.72 810
6.74 741
6.76 726
6.78 757
6.8 751
6.82 790
6.84 755
6.86 753
6.88 719
6.9 708
6.92 697
6.94 622
6.96 624
6.98 600
7 626
7.02 587
7.04 631
7.06 614
7.08 577
7.1 616
7.12 614
7.14 595
7.16 556
7.18 576
7.2 591
7.22 573
7.24 609
7.26 598
7.28 574
7.3 562
7.32 581
7.34 606
7.36 587
7.38 568
7.4 589
7.42 609
7.44 586
7.46 546
7.48 565
7.5 557
7.52 591
7.54 574
7.56 579
7.58 553
7.6 551
7.62 583
7.64 583
7.66 574
7.68 578
7.7 558
7.72 606
7.74 578
7.76 554
7.78 609
7.8 587
7.82 609
7.84 553
7.86 585
7.88 623
7.9 619
7.92 550
7.94 553
7.96 599
7.98 586
8 608
8.02 578
8.04 597
8.06 611
8.08 624
8.1 599
8.12 592
8.14 601
8.16 594
8.18 635
8.2 624
8.22 603
8.24 632
8.26 597
8.28 634
8.3 590
8.32 561
8.34 600
8.36 551
8.38 621
8.4 583
8.42 585
8.44 606
8.46 604
8.48 613
8.5 603
8.52 560
8.54 577
8.56 535
8.58 561
8.6 545
8.62 588
8.64 606
8.66 621
8.68 569
8.7 569
8.72 563
8.74 605
8.76 598
8.78 577
8.8 579
8.82 581
8.84 598
8.86 563
8.88 587
8.9 593
8.92 632
8.94 592
8.96 643
8.98 609
9 621
9.02 635
9.04 629
9.06 646
9.08 654
9.1 651
9.12 731
9.14 752
9.16 676
9.18 752
9.2 741
9.22 836
9.24 806
9.26 870
9.28 947
9.3 1035
9.32 1067
9.34 1198
9.36 1324
9.38 1533
9.4 1629
9.42 1441
9.44 1202
9.46 922
9.48 753
9.5 738
9.52 708
9.54 656
9.56 653
9.58 666
9.6 628
9.62 607
9.64 632
9.66 578
9.68 608
9.7 577
9.72 625
9.74 659
9.76 656
9.78 600
9.8 618
9.82 643
9.84 631
9.86 628
9.88 668
9.9 674
9.92 645
9.94 652
9.96 589
9.98 675
10 615
10.02 661
10.04 660
10.06 640
10.08 663
10.1 774
10.12 720
10.14 737
10.16 770
10.18 761
10.2 748
10.22 780
10.24 819
10.26 785
10.28 748
10.3 720
10.32 677
10.34 646
10.36 650
10.38 668
10.4 654
10.42 639
10.44 626
10.46 586
10.48 573
10.5 615
10.52 600
10.54 638
10.56 633
10.58 653
10.6 671
10.62 717
10.64 665
10.66 639
10.68 627
10.7 662
10.72 710
10.74 742
10.76 795
10.78 807
10.8 832
10.82 867
10.84 934
10.86 937
10.88 917
10.9 924
10.92 944
10.94 956
10.96 984
10.98 1070
11 1088
11.02 1143
11.04 1012
11.06 891
11.08 827
11.1 688
11.12 715
11.14 651
11.16 679
11.18 656
11.2 612
11.22 635
11.24 631
11.26 617
11.28 622
11.3 669
11.32 629
11.34 637
11.36 694
11.38 672
11.4 711
11.42 728
11.44 701
11.46 693
11.48 744
11.5 769
11.52 722
11.54 782
11.56 779
11.58 726
11.6 714
11.62 725
11.64 754
11.66 701
11.68 691
11.7 668
11.72 670
11.74 667
11.76 637
11.78 643
11.8 634
11.82 638
11.84 661
11.86 589
11.88 644
11.9 592
11.92 611
11.94 607
11.96 609
11.98 636
12 652
12.02 675
12.04 633
12.06 648
12.08 648
12.1 651
12.12 667
12.14 649
12.16 659
12.18 703
12.2 723
12.22 729
12.24 778
12.26 679
12.28 706
12.3 709
12.32 735
12.34 733
12.36 691
12.38 738
12.4 659
12.42 688
12.44 692
12.46 697
12.48 684
12.5 690
12.52 679
12.54 613
12.56 647
12.58 636
12.6 622
12.62 650
12.64 613
12.66 657
12.68 659
12.7 651
12.72 657
12.74 656
12.76 640
12.78 683
12.8 660
12.82 680
12.84 649
12.86 620
12.88 644
12.9 706
12.92 629
12.94 632
12.96 597
12.98 672
13 660
13.02 691
13.04 706
13.06 710
13.08 650
13.1 653
13.12 691
13.14 679
13.16 731
13.18 715
13.2 681
13.22 686
13.24 704
13.26 706
13.28 665
13.3 687
13.32 711
13.34 721
13.36 723
13.38 740
13.4 700
13.42 756
13.44 718
13.46 758
13.48 718
13.5 736
13.52 742
13.54 704
13.56 761
13.58 755
13.6 760
13.62 720
13.64 734
13.66 751
13.68 712
13.7 672
13.72 704
13.74 731
13.76 675
13.78 731
13.8 701
13.82 730
13.84 742
13.86 750
13.88 719
13.9 693
13.92 749
13.94 708
13.96 741
13.98 767
14 663
14.02 729
14.04 719
14.06 724
14.08 706
14.1 753
14.12 739
14.14 760
14.16 707
14.18 782
14.2 764
14.22 754
14.24 735
14.26 823
14.28 752
14.3 789
14.32 827
14.34 809
14.36 817
14.38 778
14.4 836
14.42 833
14.44 813
14.46 780
14.48 885
14.5 778
14.52 810
14.54 785
14.56 797
14.58 771
14.6 813
14.62 793
14.64 799
14.66 767
14.68 807
14.7 763
14.72 790
14.74 830
14.76 792
14.78 819
14.8 802
14.82 860
14.84 789
14.86 845
14.88 877
14.9 852
14.92 808
14.94 826
14.96 847
14.98 821
15 858
15.02 864
15.04 809
15.06 827
15.08 821
15.1 845
15.12 853
15.14 875
15.16 865
15.18 816
15.2 834
15.22 841
15.24 869
15.26 869
15.28 807
15.3 881
15.32 892
15.34 903
15.36 885
15.38 869
15.4 874
15.42 890
15.44 906
15.46 875
15.48 925
15.5 829
15.52 824
15.54 902
15.56 887
15.58 910
15.6 894
15.62 906
15.64 883
15.66 887
15.68 905
15.7 905
15.72 887
15.74 876
15.76 869
15.78 885
15.8 958
15.82 868
15.84 958
15.86 885
15.88 904
15.9 942
15.92 910
15.94 931
15.96 940
15.98 947
16 903
16.02 930
16.04 902
16.06 928
16.08 928
16.1 985
16.12 917
16.14 982
16.16 985
16.18 1041
16.2 1020
16.22 1053
16.24 991
16.26 1047
16.28 997
16.3 1026
16.32 1027
16.34 1075
16.36 1017
16.38 1016
16.4 1066
16.42 1013
16.44 970
16.46 985
16.48 1030
16.5 1049
16.52 1022
16.54 1022
16.56 1004
16.58 1037
16.6 1026
16.62 1067
16.64 1073
16.66 1086
16.68 1052
16.7 1078
16.72 1073
16.74 1076
16.76 1082
16.78 1125
16.8 1104
16.82 1151
16.84 1120
16.86 1126
16.88 1130
16.9 1151
16.92 1170
16.94 1302
16.96 1294
16.98 1364
17 1372
17.02 1310
17.04 1305
17.06 1278
17.08 1246
17.1 1165
17.12 1206
17.14 1106
17.16 1103
17.18 1095
17.2 1140
17.22 1172
17.24 1196
17.26 1170
17.28 1204
17.3 1193
17.32 1146
17.34 1193
17.36 1201
17.38 1189
17.4 1243
17.42 1164
17.44 1221
17.46 1231
17.48 1170
17.5 1191
17.52 1279
17.54 1196
17.56 1226
17.58 1242
17.6 1211
17.62 1212
17.64 1198
17.66 1241
17.68 1220
17.7 1190
17.72 1267
17.74 1323
17.76 1335
17.78 1261
17.8 1273
17.82 1279
17.84 1255
17.86 1304
17.88 1260
17.9 1280
17.92 1365
17.94 1358
17.96 1297
17.98 1263
18 1274
18.02 1302
18.04 1348
18.06 1314
18.08 1334
18.1 1325
18.12 1346
18.14 1350
18.16 1363
18.18 1342
18.2 1307
18.22 1344
18.24 1336
18.26 1321
18.28 1336
18.3 1354
18.32 1314
18.34 1339
18.36 1305
18.38 1386
18.4 1376
18.42 1357
18.44 1384
18.46 1441
18.48 1441
18.5 1359
18.52 1424
18.54 1410
18.56 1431
18.58 1418
18.6 1400
18.62 1447
18.64 1440
18.66 1417
18.68 1470
18.7 1528
18.72 1494
18.74 1541
18.76 1505
18.78 1527
18.8 1491
18.82 1499
18.84 1502
18.86 1521
18.88 1608
18.9 1494
18.92 1550
18.94 1522
18.96 1567
18.98 1554
19 1524
19.02 1605
19.04 1587
19.06 1547
19.08 1590
19.1 1650
19.12 1595
19.14 1671
19.16 1655
19.18 1738
19.2 1696
19.22 1710
19.24 1641
19.26 1717
19.28 1602
19.3 1662
19.32 1699
19.34 1630
19.36 1657
19.38 1594
19.4 1613
19.42 1660
19.44 1726
19.46 1761
19.48 1835
19.5 1742
19.52 1813
19.54 1789
19.56 1838
19.58 1888
19.6 1843
19.62 1823
19.64 1800
19.66 1733
19.68 1700
19.7 1688
19.72 1698
19.74 1648
19.76 1608
19.78 1696
19.8 1680
19.82 1578
19.84 1631
19.86 1676
19.88 1721
19.9 1747
19.92 1676
19.94 1786
19.96 1727
19.98 1669
20 1733