File: xrd-UiO-67/pxrddata/53-3.ASC
3 1630
3.02 1550
3.04 1437
3.06 1430
3.08 1354
3.1 1405
3.12 1350
3.14 1255
3.16 1297
3.18 1256
3.2 1267
3.22 1257
3.24 1277
3.26 1199
3.28 1240
3.3 1257
3.32 1218
3.34 1194
3.36 1151
3.38 1228
3.4 1171
3.42 1186
3.44 1178
3.46 1104
3.48 1140
3.5 1146
3.52 1141
3.54 1111
3.56 1053
3.58 999
3.6 1110
3.62 1080
3.64 1093
3.66 1052
3.68 1020
3.7 1046
3.72 1039
3.74 1036
3.76 1051
3.78 1070
3.8 1016
3.82 1029
3.84 1078
3.86 1024
3.88 1032
3.9 945
3.92 997
3.94 983
3.96 958
3.98 1014
4 1012
4.02 1022
4.04 1023
4.06 1014
4.08 1025
4.1 1028
4.12 991
4.14 1014
4.16 1003
4.18 952
4.2 946
4.22 952
4.24 993
4.26 951
4.28 920
4.3 922
4.32 926
4.34 938
4.36 880
4.38 885
4.4 891
4.42 907
4.44 882
4.46 898
4.48 859
4.5 847
4.52 864
4.54 802
4.56 837
4.58 869
4.6 834
4.62 834
4.64 844
4.66 840
4.68 883
4.7 853
4.72 859
4.74 824
4.76 832
4.78 850
4.8 849
4.82 881
4.84 906
4.86 890
4.88 901
4.9 908
4.92 889
4.94 919
4.96 903
4.98 885
5 964
5.02 956
5.04 980
5.06 994
5.08 992
5.1 1003
5.12 931
5.14 1027
5.16 969
5.18 1041
5.2 988
5.22 1071
5.24 1099
5.26 1132
5.28 1150
5.3 1163
5.32 1215
5.34 1271
5.36 1317
5.38 1291
5.4 1359
5.42 1407
5.44 1463
5.46 1604
5.48 1698
5.5 1728
5.52 1559
5.54 1466
5.56 1441
5.58 1512
5.6 1463
5.62 1446
5.64 1565
5.66 1607
5.68 1598
5.7 1686
5.72 1691
5.74 1809
5.76 1832
5.78 1933
5.8 2012
5.82 2195
5.84 2102
5.86 2017
5.88 1750
5.9 1548
5.92 1397
5.94 1157
5.96 1057
5.98 999
6 951
6.02 871
6.04 845
6.06 894
6.08 835
6.1 814
6.12 774
6.14 786
6.16 738
6.18 760
6.2 784
6.22 732
6.24 740
6.26 754
6.28 727
6.3 710
6.32 747
6.34 737
6.36 682
6.38 685
6.4 703
6.42 682
6.44 692
6.46 732
6.48 695
6.5 681
6.52 697
6.54 739
6.56 698
6.58 684
6.6 705
6.62 698
6.64 699
6.66 736
6.68 770
6.7 674
6.72 690
6.74 753
6.76 734
6.78 777
6.8 748
6.82 695
6.84 726
6.86 722
6.88 690
6.9 699
6.92 666
6.94 649
6.96 657
6.98 654
7 643
7.02 603
7.04 614
7.06 614
7.08 598
7.1 591
7.12 647
7.14 662
7.16 619
7.18 621
7.2 561
7.22 609
7.24 610
7.26 604
7.28 584
7.3 603
7.32 612
7.34 601
7.36 591
7.38 564
7.4 554
7.42 582
7.44 584
7.46 550
7.48 569
7.5 613
7.52 588
7.54 578
7.56 575
7.58 589
7.6 635
7.62 587
7.64 573
7.66 577
7.68 603
7.7 544
7.72 579
7.74 620
7.76 632
7.78 608
7.8 542
7.82 614
7.84 602
7.86 562
7.88 616
7.9 629
7.92 566
7.94 594
7.96 562
7.98 610
8 592
8.02 622
8.04 661
8.06 599
8.08 651
8.1 587
8.12 607
8.14 595
8.16 610
8.18 597
8.2 579
8.22 631
8.24 615
8.26 654
8.28 630
8.3 602
8.32 604
8.34 582
8.36 607
8.38 611
8.4 610
8.42 591
8.44 606
8.46 608
8.48 584
8.5 577
8.52 574
8.54 576
8.56 603
8.58 590
8.6 628
8.62 590
8.64 595
8.66 643
8.68 586
8.7 574
8.72 670
8.74 632
8.76 588
8.78 598
8.8 571
8.82 605
8.84 542
8.86 641
8.88 668
8.9 636
8.92 609
8.94 637
8.96 602
8.98 628
9 679
9.02 651
9.04 632
9.06 659
9.08 668
9.1 718
9.12 689
9.14 667
9.16 684
9.18 756
9.2 743
9.22 766
9.24 763
9.26 856
9.28 799
9.3 860
9.32 961
9.34 1003
9.36 1075
9.38 1115
9.4 1173
9.42 1138
9.44 1036
9.46 911
9.48 814
9.5 706
9.52 713
9.54 698
9.56 666
9.58 718
9.6 692
9.62 683
9.64 632
9.66 669
9.68 653
9.7 641
9.72 688
9.74 655
9.76 655
9.78 710
9.8 684
9.82 691
9.84 644
9.86 649
9.88 699
9.9 666
9.92 664
9.94 734
9.96 661
9.98 657
10 692
10.02 677
10.04 660
10.06 699
10.08 673
10.1 710
10.12 741
10.14 744
10.16 734
10.18 719
10.2 750
10.22 801
10.24 767
10.26 759
10.28 761
10.3 756
10.32 732
10.34 681
10.36 642
10.38 663
10.4 637
10.42 655
10.44 634
10.46 635
10.48 659
10.5 692
10.52 634
10.54 640
10.56 685
10.58 675
10.6 631
10.62 690
10.64 720
10.66 678
10.68 676
10.7 678
10.72 675
10.74 728
10.76 749
10.78 805
10.8 753
10.82 791
10.84 807
10.86 780
10.88 809
10.9 843
10.92 845
10.94 833
10.96 882
10.98 866
11 929
11.02 889
11.04 934
11.06 827
11.08 774
11.1 793
11.12 684
11.14 694
11.16 691
11.18 651
11.2 638
11.22 645
11.24 643
11.26 675
11.28 674
11.3 644
11.32 659
11.34 685
11.36 652
11.38 699
11.4 675
11.42 732
11.44 699
11.46 715
11.48 685
11.5 706
11.52 724
11.54 719
11.56 705
11.58 737
11.6 677
11.62 700
11.64 682
11.66 743
11.68 680
11.7 674
11.72 678
11.74 652
11.76 648
11.78 603
11.8 639
11.82 640
11.84 647
11.86 607
11.88 643
11.9 656
11.92 606
11.94 661
11.96 677
11.98 651
12 655
12.02 611
12.04 637
12.06 654
12.08 628
12.1 623
12.12 635
12.14 658
12.16 634
12.18 662
12.2 654
12.22 628
12.24 662
12.26 691
12.28 701
12.3 689
12.32 715
12.34 640
12.36 646
12.38 646
12.4 644
12.42 664
12.44 716
12.46 627
12.48 639
12.5 672
12.52 654
12.54 633
12.56 599
12.58 646
12.6 588
12.62 629
12.64 628
12.66 619
12.68 650
12.7 620
12.72 653
12.74 662
12.76 629
12.78 660
12.8 609
12.82 650
12.84 610
12.86 677
12.88 657
12.9 623
12.92 625
12.94 640
12.96 646
12.98 613
13 652
13.02 676
13.04 634
13.06 650
13.08 641
13.1 648
13.12 661
13.14 647
13.16 669
13.18 684
13.2 657
13.22 720
13.24 703
13.26 674
13.28 674
13.3 689
13.32 705
13.34 721
13.36 699
13.38 680
13.4 741
13.42 718
13.44 659
13.46 688
13.48 682
13.5 725
13.52 710
13.54 723
13.56 669
13.58 724
13.6 683
13.62 708
13.64 667
13.66 709
13.68 704
13.7 678
13.72 706
13.74 677
13.76 689
13.78 704
13.8 666
13.82 709
13.84 688
13.86 721
13.88 664
13.9 707
13.92 678
13.94 712
13.96 730
13.98 698
14 724
14.02 728
14.04 708
14.06 752
14.08 698
14.1 731
14.12 713
14.14 729
14.16 769
14.18 753
14.2 726
14.22 712
14.24 762
14.26 800
14.28 751
14.3 744
14.32 764
14.34 735
14.36 764
14.38 794
14.4 753
14.42 784
14.44 821
14.46 864
14.48 804
14.5 763
14.52 770
14.54 775
14.56 753
14.58 795
14.6 786
14.62 748
14.64 720
14.66 781
14.68 818
14.7 790
14.72 811
14.74 814
14.76 802
14.78 851
14.8 801
14.82 785
14.84 817
14.86 835
14.88 799
14.9 817
14.92 857
14.94 831
14.96 837
14.98 799
15 816
15.02 796
15.04 845
15.06 847
15.08 854
15.1 826
15.12 855
15.14 848
15.16 775
15.18 881
15.2 860
15.22 856
15.24 833
15.26 861
15.28 836
15.3 843
15.32 822
15.34 856
15.36 841
15.38 837
15.4 814
15.42 887
15.44 813
15.46 895
15.48 858
15.5 846
15.52 831
15.54 861
15.56 891
15.58 822
15.6 887
15.62 894
15.64 819
15.66 906
15.68 891
15.7 868
15.72 892
15.74 852
15.76 864
15.78 913
15.8 940
15.82 886
15.84 888
15.86 900
15.88 883
15.9 908
15.92 904
15.94 891
15.96 882
15.98 1003
16 964
16.02 892
16.04 934
16.06 883
16.08 943
16.1 964
16.12 928
16.14 938
16.16 1022
16.18 948
16.2 998
16.22 980
16.24 990
16.26 977
16.28 986
16.3 1011
16.32 996
16.34 1016
16.36 1041
16.38 974
16.4 977
16.42 983
16.44 1027
16.46 1006
16.48 982
16.5 1007
16.52 1027
16.54 1019
16.56 996
16.58 985
16.6 989
16.62 1001
16.64 1072
16.66 1071
16.68 1061
16.7 1036
16.72 1057
16.74 1052
16.76 1080
16.78 1114
16.8 1071
16.82 1065
16.84 1069
16.86 1049
16.88 1087
16.9 1121
16.92 1185
16.94 1166
16.96 1167
16.98 1230
17 1340
17.02 1303
17.04 1254
17.06 1302
17.08 1171
17.1 1130
17.12 1183
17.14 1142
17.16 1117
17.18 1096
17.2 1164
17.22 1153
17.24 1177
17.26 1197
17.28 1147
17.3 1176
17.32 1123
17.34 1192
17.36 1192
17.38 1175
17.4 1198
17.42 1196
17.44 1212
17.46 1188
17.48 1154
17.5 1227
17.52 1137
17.54 1120
17.56 1204
17.58 1227
17.6 1290
17.62 1192
17.64 1217
17.66 1251
17.68 1228
17.7 1195
17.72 1256
17.74 1224
17.76 1246
17.78 1270
17.8 1272
17.82 1251
17.84 1245
17.86 1289
17.88 1284
17.9 1321
17.92 1289
17.94 1236
17.96 1265
17.98 1331
18 1299
18.02 1289
18.04 1253
18.06 1327
18.08 1259
18.1 1289
18.12 1321
18.14 1312
18.16 1246
18.18 1294
18.2 1327
18.22 1402
18.24 1382
18.26 1294
18.28 1353
18.3 1308
18.32 1359
18.34 1380
18.36 1397
18.38 1380
18.4 1458
18.42 1311
18.44 1415
18.46 1346
18.48 1334
18.5 1400
18.52 1422
18.54 1386
18.56 1384
18.58 1382
18.6 1381
18.62 1424
18.64 1442
18.66 1436
18.68 1455
18.7 1451
18.72 1430
18.74 1503
18.76 1501
18.78 1488
18.8 1516
18.82 1461
18.84 1534
18.86 1458
18.88 1494
18.9 1510
18.92 1542
18.94 1445
18.96 1476
18.98 1546
19 1505
19.02 1533
19.04 1518
19.06 1544
19.08 1597
19.1 1569
19.12 1631
19.14 1596
19.16 1596
19.18 1708
19.2 1679
19.22 1613
19.24 1611
19.26 1635
19.28 1600
19.3 1618
19.32 1566
19.34 1581
19.36 1641
19.38 1538
19.4 1573
19.42 1605
19.44 1682
19.46 1635
19.48 1728
19.5 1674
19.52 1690
19.54 1818
19.56 1768
19.58 1805
19.6 1781
19.62 1687
19.64 1805
19.66 1703
19.68 1723
19.7 1731
19.72 1699
19.74 1711
19.76 1691
19.78 1734
19.8 1606
19.82 1715
19.84 1708
19.86 1789
19.88 1660
19.9 1682
19.92 1650
19.94 1711
19.96 1697
19.98 1741
20 1727