File: xrd-UiO-67/pxrddata/53-6.ASC
3 2143
3.02 2109
3.04 2052
3.06 2005
3.08 1903
3.1 1903
3.12 1774
3.14 1855
3.16 1911
3.18 1829
3.2 1789
3.22 1749
3.24 1685
3.26 1729
3.28 1690
3.3 1720
3.32 1641
3.34 1605
3.36 1602
3.38 1544
3.4 1582
3.42 1504
3.44 1510
3.46 1560
3.48 1558
3.5 1483
3.52 1513
3.54 1498
3.56 1493
3.58 1429
3.6 1482
3.62 1412
3.64 1462
3.66 1399
3.68 1459
3.7 1424
3.72 1356
3.74 1287
3.76 1337
3.78 1327
3.8 1364
3.82 1338
3.84 1341
3.86 1383
3.88 1308
3.9 1365
3.92 1279
3.94 1276
3.96 1289
3.98 1320
4 1358
4.02 1372
4.04 1309
4.06 1271
4.08 1273
4.1 1311
4.12 1310
4.14 1308
4.16 1291
4.18 1277
4.2 1282
4.22 1265
4.24 1194
4.26 1250
4.28 1214
4.3 1281
4.32 1164
4.34 1264
4.36 1243
4.38 1241
4.4 1193
4.42 1181
4.44 1211
4.46 1158
4.48 1197
4.5 1199
4.52 1218
4.54 1231
4.56 1218
4.58 1261
4.6 1234
4.62 1223
4.64 1225
4.66 1230
4.68 1220
4.7 1270
4.72 1188
4.74 1189
4.76 1229
4.78 1216
4.8 1239
4.82 1220
4.84 1207
4.86 1248
4.88 1278
4.9 1307
4.92 1306
4.94 1314
4.96 1270
4.98 1394
5 1250
5.02 1301
5.04 1281
5.06 1258
5.08 1264
5.1 1374
5.12 1324
5.14 1349
5.16 1262
5.18 1336
5.2 1335
5.22 1394
5.24 1420
5.26 1389
5.28 1483
5.3 1449
5.32 1478
5.34 1587
5.36 1570
5.38 1565
5.4 1548
5.42 1656
5.44 1675
5.46 1604
5.48 1593
5.5 1604
5.52 1552
5.54 1535
5.56 1480
5.58 1610
5.6 1567
5.62 1630
5.64 1617
5.66 1654
5.68 1746
5.7 1767
5.72 1824
5.74 1894
5.76 1915
5.78 1840
5.8 1801
5.82 1836
5.84 1719
5.86 1509
5.88 1388
5.9 1349
5.92 1235
5.94 1161
5.96 1161
5.98 1107
6 1055
6.02 1045
6.04 1017
6.06 1047
6.08 1000
6.1 1011
6.12 969
6.14 951
6.16 992
6.18 965
6.2 928
6.22 904
6.24 926
6.26 936
6.28 894
6.3 969
6.32 900
6.34 923
6.36 853
6.38 874
6.4 871
6.42 906
6.44 827
6.46 904
6.48 934
6.5 926
6.52 881
6.54 899
6.56 888
6.58 820
6.6 855
6.62 889
6.64 904
6.66 840
6.68 877
6.7 877
6.72 843
6.74 871
6.76 828
6.78 818
6.8 869
6.82 812
6.84 789
6.86 820
6.88 731
6.9 779
6.92 766
6.94 747
6.96 785
6.98 741
7 731
7.02 721
7.04 745
7.06 723
7.08 734
7.1 705
7.12 735
7.14 734
7.16 742
7.18 696
7.2 710
7.22 703
7.24 721
7.26 733
7.28 764
7.3 720
7.32 702
7.34 650
7.36 679
7.38 735
7.4 706
7.42 713
7.44 696
7.46 711
7.48 718
7.5 688
7.52 733
7.54 688
7.56 724
7.58 677
7.6 712
7.62 695
7.64 703
7.66 690
7.68 699
7.7 692
7.72 711
7.74 658
7.76 633
7.78 691
7.8 697
7.82 704
7.84 747
7.86 687
7.88 718
7.9 713
7.92 672
7.94 731
7.96 670
7.98 681
8 649
8.02 655
8.04 649
8.06 690
8.08 658
8.1 707
8.12 678
8.14 699
8.16 685
8.18 696
8.2 745
8.22 651
8.24 703
8.26 724
8.28 708
8.3 706
8.32 697
8.34 718
8.36 697
8.38 707
8.4 679
8.42 712
8.44 713
8.46 696
8.48 689
8.5 696
8.52 709
8.54 682
8.56 670
8.58 725
8.6 717
8.62 667
8.64 663
8.66 671
8.68 695
8.7 703
8.72 740
8.74 748
8.76 729
8.78 715
8.8 749
8.82 737
8.84 688
8.86 698
8.88 676
8.9 731
8.92 791
8.94 761
8.96 777
8.98 725
9 704
9.02 753
9.04 714
9.06 727
9.08 818
9.1 787
9.12 834
9.14 847
9.16 867
9.18 906
9.2 857
9.22 882
9.24 935
9.26 945
9.28 928
9.3 997
9.32 1018
9.34 1066
9.36 1022
9.38 1021
9.4 968
9.42 894
9.44 813
9.46 842
9.48 787
9.5 812
9.52 774
9.54 794
9.56 819
9.58 782
9.6 789
9.62 789
9.64 742
9.66 760
9.68 766
9.7 851
9.72 749
9.74 766
9.76 781
9.78 825
9.8 777
9.82 814
9.84 808
9.86 746
9.88 781
9.9 805
9.92 848
9.94 797
9.96 787
9.98 720
10 773
10.02 769
10.04 837
10.06 807
10.08 776
10.1 841
10.12 759
10.14 822
10.16 885
10.18 834
10.2 844
10.22 828
10.24 779
10.26 759
10.28 776
10.3 757
10.32 754
10.34 774
10.36 798
10.38 759
10.4 726
10.42 755
10.44 768
10.46 739
10.48 770
10.5 744
10.52 743
10.54 749
10.56 816
10.58 781
10.6 779
10.62 761
10.64 771
10.66 782
10.68 806
10.7 773
10.72 768
10.74 764
10.76 841
10.78 836
10.8 863
10.82 862
10.84 802
10.86 871
10.88 908
10.9 836
10.92 908
10.94 884
10.96 873
10.98 864
11 830
11.02 855
11.04 820
11.06 783
11.08 737
11.1 713
11.12 720
11.14 763
11.16 759
11.18 746
11.2 715
11.22 740
11.24 747
11.26 700
11.28 676
11.3 724
11.32 713
11.34 711
11.36 723
11.38 697
11.4 716
11.42 746
11.44 720
11.46 748
11.48 750
11.5 749
11.52 744
11.54 704
11.56 801
11.58 719
11.6 772
11.62 726
11.64 722
11.66 702
11.68 715
11.7 708
11.72 669
11.74 713
11.76 679
11.78 701
11.8 730
11.82 699
11.84 694
11.86 666
11.88 675
11.9 639
11.92 684
11.94 701
11.96 726
11.98 687
12 644
12.02 754
12.04 645
12.06 687
12.08 703
12.1 725
12.12 708
12.14 653
12.16 699
12.18 723
12.2 725
12.22 711
12.24 717
12.26 693
12.28 694
12.3 758
12.32 670
12.34 729
12.36 674
12.38 670
12.4 678
12.42 686
12.44 692
12.46 679
12.48 671
12.5 677
12.52 664
12.54 704
12.56 710
12.58 694
12.6 694
12.62 655
12.64 713
12.66 708
12.68 675
12.7 664
12.72 673
12.74 649
12.76 698
12.78 698
12.8 729
12.82 700
12.84 708
12.86 684
12.88 678
12.9 686
12.92 678
12.94 698
12.96 743
12.98 700
13 712
13.02 659
13.04 677
13.06 708
13.08 666
13.1 707
13.12 725
13.14 711
13.16 709
13.18 685
13.2 746
13.22 706
13.24 711
13.26 720
13.28 719
13.3 745
13.32 769
13.34 741
13.36 777
13.38 757
13.4 750
13.42 735
13.44 746
13.46 740
13.48 734
13.5 706
13.52 730
13.54 759
13.56 795
13.58 729
13.6 713
13.62 751
13.64 732
13.66 747
13.68 754
13.7 760
13.72 756
13.74 729
13.76 707
13.78 744
13.8 758
13.82 748
13.84 740
13.86 751
13.88 732
13.9 770
13.92 718
13.94 736
13.96 742
13.98 718
14 784
14.02 754
14.04 713
14.06 737
14.08 751
14.1 796
14.12 787
14.14 783
14.16 779
14.18 764
14.2 760
14.22 754
14.24 743
14.26 773
14.28 779
14.3 810
14.32 833
14.34 832
14.36 809
14.38 785
14.4 815
14.42 823
14.44 796
14.46 823
14.48 810
14.5 811
14.52 776
14.54 785
14.56 811
14.58 817
14.6 847
14.62 813
14.64 849
14.66 806
14.68 832
14.7 812
14.72 857
14.74 774
14.76 832
14.78 813
14.8 857
14.82 813
14.84 769
14.86 816
14.88 865
14.9 836
14.92 838
14.94 842
14.96 859
14.98 843
15 830
15.02 874
15.04 834
15.06 794
15.08 867
15.1 863
15.12 829
15.14 790
15.16 887
15.18 833
15.2 861
15.22 850
15.24 887
15.26 842
15.28 871
15.3 843
15.32 865
15.34 871
15.36 817
15.38 890
15.4 903
15.42 884
15.44 836
15.46 892
15.48 851
15.5 909
15.52 875
15.54 901
15.56 910
15.58 901
15.6 870
15.62 892
15.64 936
15.66 848
15.68 933
15.7 878
15.72 945
15.74 877
15.76 886
15.78 906
15.8 896
15.82 919
15.84 817
15.86 863
15.88 882
15.9 858
15.92 915
15.94 941
15.96 951
15.98 904
16 904
16.02 927
16.04 926
16.06 937
16.08 926
16.1 962
16.12 930
16.14 923
16.16 949
16.18 913
16.2 972
16.22 930
16.24 965
16.26 924
16.28 970
16.3 968
16.32 964
16.34 951
16.36 999
16.38 1025
16.4 945
16.42 1004
16.44 989
16.46 989
16.48 1003
16.5 1029
16.52 976
16.54 964
16.56 1016
16.58 976
16.6 1040
16.62 1002
16.64 984
16.66 1056
16.68 1022
16.7 1032
16.72 1006
16.74 1138
16.76 1035
16.78 1082
16.8 1106
16.82 1098
16.84 1171
16.86 1227
16.88 1253
16.9 1400
16.92 1512
16.94 1645
16.96 1760
16.98 1739
17 1714
17.02 1565
17.04 1485
17.06 1335
17.08 1280
17.1 1204
17.12 1140
17.14 1084
17.16 1137
17.18 1110
17.2 1069
17.22 1132
17.24 1133
17.26 1106
17.28 1151
17.3 1139
17.32 1086
17.34 1078
17.36 1171
17.38 1163
17.4 1166
17.42 1107
17.44 1163
17.46 1136
17.48 1101
17.5 1084
17.52 1160
17.54 1154
17.56 1131
17.58 1120
17.6 1148
17.62 1170
17.64 1117
17.66 1154
17.68 1144
17.7 1144
17.72 1132
17.74 1147
17.76 1148
17.78 1163
17.8 1187
17.82 1130
17.84 1160
17.86 1179
17.88 1204
17.9 1233
17.92 1153
17.94 1232
17.96 1204
17.98 1242
18 1227
18.02 1183
18.04 1199
18.06 1201
18.08 1222
18.1 1236
18.12 1211
18.14 1155
18.16 1205
18.18 1168
18.2 1219
18.22 1261
18.24 1216
18.26 1215
18.28 1255
18.3 1240
18.32 1268
18.34 1271
18.36 1247
18.38 1280
18.4 1254
18.42 1361
18.44 1296
18.46 1266
18.48 1294
18.5 1314
18.52 1306
18.54 1304
18.56 1277
18.58 1314
18.6 1248
18.62 1298
18.64 1296
18.66 1345
18.68 1370
18.7 1291
18.72 1327
18.74 1305
18.76 1295
18.78 1351
18.8 1340
18.82 1318
18.84 1351
18.86 1392
18.88 1378
18.9 1395
18.92 1388
18.94 1412
18.96 1394
18.98 1380
19 1371
19.02 1355
19.04 1396
19.06 1462
19.08 1460
19.1 1474
19.12 1475
19.14 1419
19.16 1398
19.18 1412
19.2 1495
19.22 1390
19.24 1387
19.26 1429
19.28 1380
19.3 1445
19.32 1448
19.34 1405
19.36 1532
19.38 1437
19.4 1474
19.42 1503
19.44 1482
19.46 1506
19.48 1487
19.5 1523
19.52 1478
19.54 1489
19.56 1544
19.58 1541
19.6 1524
19.62 1483
19.64 1441
19.66 1488
19.68 1361
19.7 1472
19.72 1484
19.74 1433
19.76 1552
19.78 1505
19.8 1516
19.82 1486
19.84 1527
19.86 1567
19.88 1504
19.9 1506
19.92 1515
19.94 1508
19.96 1514
19.98 1508
20 1472