File: xrd-UiO-67/pxrddata/53-7.ASC
3 1656
3.02 1480
3.04 1524
3.06 1384
3.08 1328
3.1 1370
3.12 1315
3.14 1386
3.16 1338
3.18 1280
3.2 1270
3.22 1212
3.24 1219
3.26 1201
3.28 1223
3.3 1236
3.32 1215
3.34 1215
3.36 1239
3.38 1125
3.4 1164
3.42 1188
3.44 1165
3.46 1157
3.48 1129
3.5 1129
3.52 1178
3.54 1152
3.56 1112
3.58 1134
3.6 1160
3.62 1180
3.64 1169
3.66 1145
3.68 1045
3.7 1151
3.72 1066
3.74 1043
3.76 1122
3.78 1086
3.8 1090
3.82 1095
3.84 1119
3.86 1090
3.88 1101
3.9 1114
3.92 1103
3.94 1108
3.96 1068
3.98 1139
4 1104
4.02 1111
4.04 1140
4.06 1104
4.08 1115
4.1 1075
4.12 1101
4.14 1165
4.16 1132
4.18 1101
4.2 1081
4.22 1075
4.24 1044
4.26 1114
4.28 1056
4.3 1017
4.32 998
4.34 1015
4.36 972
4.38 1045
4.4 1055
4.42 982
4.44 947
4.46 991
4.48 948
4.5 966
4.52 991
4.54 950
4.56 1032
4.58 1020
4.6 946
4.62 1002
4.64 961
4.66 1005
4.68 999
4.7 1006
4.72 970
4.74 1027
4.76 970
4.78 981
4.8 1079
4.82 1027
4.84 1011
4.86 1016
4.88 1037
4.9 1048
4.92 1049
4.94 1088
4.96 1105
4.98 1145
5 1074
5.02 1012
5.04 1175
5.06 1093
5.08 1091
5.1 1077
5.12 1195
5.14 1145
5.16 1122
5.18 1148
5.2 1187
5.22 1248
5.24 1209
5.26 1249
5.28 1273
5.3 1419
5.32 1382
5.34 1375
5.36 1373
5.38 1482
5.4 1569
5.42 1632
5.44 1710
5.46 1806
5.48 1960
5.5 2042
5.52 1931
5.54 1795
5.56 1665
5.58 1580
5.6 1630
5.62 1642
5.64 1708
5.66 1701
5.68 1803
5.7 1785
5.72 1904
5.74 1963
5.76 2109
5.78 2173
5.8 2334
5.82 2516
5.84 2509
5.86 2363
5.88 2249
5.9 1963
5.92 1642
5.94 1432
5.96 1268
5.98 1147
6 1070
6.02 989
6.04 965
6.06 885
6.08 947
6.1 927
6.12 871
6.14 829
6.16 836
6.18 857
6.2 869
6.22 835
6.24 883
6.26 880
6.28 801
6.3 880
6.32 798
6.34 837
6.36 837
6.38 858
6.4 785
6.42 753
6.44 810
6.46 769
6.48 836
6.5 816
6.52 807
6.54 828
6.56 796
6.58 782
6.6 782
6.62 852
6.64 798
6.66 840
6.68 836
6.7 841
6.72 867
6.74 792
6.76 817
6.78 895
6.8 845
6.82 837
6.84 919
6.86 847
6.88 881
6.9 823
6.92 807
6.94 758
6.96 725
6.98 722
7 758
7.02 717
7.04 683
7.06 709
7.08 693
7.1 741
7.12 680
7.14 675
7.16 755
7.18 655
7.2 718
7.22 691
7.24 703
7.26 665
7.28 682
7.3 728
7.32 694
7.34 671
7.36 666
7.38 649
7.4 656
7.42 614
7.44 687
7.46 696
7.48 732
7.5 674
7.52 693
7.54 662
7.56 646
7.58 691
7.6 648
7.62 684
7.64 714
7.66 683
7.68 624
7.7 672
7.72 739
7.74 684
7.76 685
7.78 728
7.8 681
7.82 687
7.84 665
7.86 645
7.88 692
7.9 746
7.92 644
7.94 687
7.96 703
7.98 704
8 713
8.02 679
8.04 683
8.06 744
8.08 689
8.1 669
8.12 670
8.14 688
8.16 722
8.18 728
8.2 701
8.22 702
8.24 678
8.26 736
8.28 712
8.3 705
8.32 642
8.34 686
8.36 696
8.38 705
8.4 717
8.42 680
8.44 676
8.46 679
8.48 746
8.5 678
8.52 717
8.54 713
8.56 698
8.58 703
8.6 618
8.62 732
8.64 689
8.66 686
8.68 669
8.7 703
8.72 681
8.74 699
8.76 687
8.78 707
8.8 713
8.82 742
8.84 717
8.86 708
8.88 694
8.9 732
8.92 679
8.94 737
8.96 748
8.98 719
9 737
9.02 790
9.04 746
9.06 760
9.08 744
9.1 740
9.12 784
9.14 781
9.16 832
9.18 798
9.2 826
9.22 870
9.24 878
9.26 911
9.28 921
9.3 1012
9.32 1048
9.34 1074
9.36 1098
9.38 1229
9.4 1310
9.42 1391
9.44 1234
9.46 1068
9.48 896
9.5 889
9.52 812
9.54 782
9.56 811
9.58 729
9.6 742
9.62 765
9.64 773
9.66 759
9.68 756
9.7 808
9.72 777
9.74 793
9.76 741
9.78 775
9.8 770
9.82 752
9.84 761
9.86 803
9.88 744
9.9 793
9.92 822
9.94 783
9.96 775
9.98 785
10 733
10.02 780
10.04 751
10.06 780
10.08 836
10.1 790
10.12 803
10.14 814
10.16 847
10.18 894
10.2 868
10.22 892
10.24 889
10.26 886
10.28 886
10.3 826
10.32 808
10.34 837
10.36 764
10.38 808
10.4 835
10.42 828
10.44 752
10.46 803
10.48 774
10.5 766
10.52 735
10.54 712
10.56 764
10.58 752
10.6 754
10.62 777
10.64 797
10.66 801
10.68 809
10.7 803
10.72 839
10.74 794
10.76 855
10.78 836
10.8 840
10.82 921
10.84 918
10.86 985
10.88 1025
10.9 926
10.92 928
10.94 983
10.96 972
10.98 1035
11 1110
11.02 1135
11.04 1125
11.06 1077
11.08 961
11.1 878
11.12 836
11.14 786
11.16 801
11.18 772
11.2 808
11.22 777
11.24 794
11.26 753
11.28 729
11.3 773
11.32 789
11.34 744
11.36 797
11.38 792
11.4 781
11.42 823
11.44 843
11.46 794
11.48 810
11.5 793
11.52 828
11.54 859
11.56 811
11.58 902
11.6 817
11.62 837
11.64 859
11.66 819
11.68 803
11.7 773
11.72 744
11.74 751
11.76 820
11.78 768
11.8 754
11.82 747
11.84 731
11.86 755
11.88 732
11.9 768
11.92 772
11.94 761
11.96 731
11.98 700
12 788
12.02 759
12.04 753
12.06 743
12.08 722
12.1 744
12.12 774
12.14 799
12.16 816
12.18 776
12.2 805
12.22 805
12.24 826
12.26 818
12.28 808
12.3 836
12.32 830
12.34 788
12.36 774
12.38 780
12.4 771
12.42 804
12.44 788
12.46 815
12.48 812
12.5 797
12.52 765
12.54 755
12.56 792
12.58 773
12.6 771
12.62 772
12.64 748
12.66 746
12.68 740
12.7 767
12.72 799
12.74 796
12.76 728
12.78 715
12.8 798
12.82 801
12.84 796
12.86 789
12.88 764
12.9 721
12.92 761
12.94 798
12.96 832
12.98 774
13 752
13.02 787
13.04 805
13.06 800
13.08 818
13.1 810
13.12 760
13.14 807
13.16 804
13.18 800
13.2 829
13.22 827
13.24 801
13.26 823
13.28 866
13.3 851
13.32 811
13.34 787
13.36 831
13.38 901
13.4 848
13.42 884
13.44 867
13.46 906
13.48 851
13.5 872
13.52 828
13.54 836
13.56 835
13.58 838
13.6 808
13.62 852
13.64 826
13.66 838
13.68 901
13.7 850
13.72 843
13.74 821
13.76 892
13.78 906
13.8 879
13.82 853
13.84 850
13.86 897
13.88 854
13.9 865
13.92 852
13.94 828
13.96 892
13.98 824
14 829
14.02 901
14.04 924
14.06 894
14.08 869
14.1 937
14.12 905
14.14 902
14.16 970
14.18 995
14.2 941
14.22 917
14.24 915
14.26 929
14.28 972
14.3 912
14.32 949
14.34 934
14.36 954
14.38 953
14.4 929
14.42 924
14.44 982
14.46 1039
14.48 994
14.5 987
14.52 970
14.54 984
14.56 900
14.58 940
14.6 966
14.62 949
14.64 957
14.66 977
14.68 955
14.7 949
14.72 924
14.74 975
14.76 979
14.78 1002
14.8 958
14.82 988
14.84 974
14.86 1015
14.88 1013
14.9 1012
14.92 973
14.94 1031
14.96 1060
14.98 997
15 1048
15.02 1028
15.04 1042
15.06 1001
15.08 1019
15.1 1022
15.12 1072
15.14 1113
15.16 1050
15.18 1038
15.2 1087
15.22 1026
15.24 1089
15.26 1093
15.28 1073
15.3 1057
15.32 1046
15.34 1043
15.36 1030
15.38 1090
15.4 1099
15.42 1063
15.44 1069
15.46 1021
15.48 1090
15.5 1100
15.52 1073
15.54 1097
15.56 1080
15.58 1120
15.6 1153
15.62 1115
15.64 1092
15.66 1092
15.68 1049
15.7 1102
15.72 1142
15.74 1090
15.76 1140
15.78 1062
15.8 1127
15.82 1111
15.84 1120
15.86 1144
15.88 1180
15.9 1149
15.92 1182
15.94 1199
15.96 1121
15.98 1144
16 1110
16.02 1134
16.04 1134
16.06 1152
16.08 1138
16.1 1154
16.12 1185
16.14 1160
16.16 1233
16.18 1162
16.2 1230
16.22 1228
16.24 1260
16.26 1170
16.28 1235
16.3 1176
16.32 1156
16.34 1274
16.36 1260
16.38 1332
16.4 1215
16.42 1307
16.44 1276
16.46 1239
16.48 1299
16.5 1327
16.52 1304
16.54 1239
16.56 1283
16.58 1312
16.6 1296
16.62 1295
16.64 1280
16.66 1347
16.68 1338
16.7 1319
16.72 1287
16.74 1317
16.76 1421
16.78 1326
16.8 1336
16.82 1326
16.84 1356
16.86 1396
16.88 1431
16.9 1459
16.92 1440
16.94 1577
16.96 1590
16.98 1794
17 1911
17.02 2068
17.04 2036
17.06 2129
17.08 2036
17.1 1995
17.12 1785
17.14 1619
17.16 1493
17.18 1487
17.2 1477
17.22 1412
17.24 1463
17.26 1430
17.28 1421
17.3 1437
17.32 1497
17.34 1453
17.36 1481
17.38 1433
17.4 1435
17.42 1498
17.44 1450
17.46 1464
17.48 1422
17.5 1517
17.52 1486
17.54 1488
17.56 1430
17.58 1485
17.6 1507
17.62 1476
17.64 1531
17.66 1516
17.68 1448
17.7 1535
17.72 1545
17.74 1568
17.76 1514
17.78 1500
17.8 1526
17.82 1569
17.84 1580
17.86 1638
17.88 1500
17.9 1546
17.92 1511
17.94 1547
17.96 1526
17.98 1580
18 1568
18.02 1523
18.04 1602
18.06 1571
18.08 1566
18.1 1583
18.12 1564
18.14 1590
18.16 1595
18.18 1551
18.2 1686
18.22 1635
18.24 1658
18.26 1593
18.28 1691
18.3 1601
18.32 1657
18.34 1671
18.36 1599
18.38 1705
18.4 1625
18.42 1670
18.44 1669
18.46 1722
18.48 1676
18.5 1632
18.52 1695
18.54 1736
18.56 1727
18.58 1662
18.6 1717
18.62 1650
18.64 1683
18.66 1756
18.68 1690
18.7 1741
18.72 1733
18.74 1729
18.76 1759
18.78 1796
18.8 1786
18.82 1770
18.84 1789
18.86 1776
18.88 1760
18.9 1737
18.92 1727
18.94 1779
18.96 1768
18.98 1852
19 1762
19.02 1822
19.04 1762
19.06 1805
19.08 1913
19.1 1889
19.12 1816
19.14 1904
19.16 1864
19.18 1933
19.2 1907
19.22 1956
19.24 1911
19.26 1924
19.28 1903
19.3 1826
19.32 1868
19.34 1903
19.36 1902
19.38 1906
19.4 1836
19.42 1895
19.44 1862
19.46 2024
19.48 1950
19.5 1971
19.52 2000
19.54 2002
19.56 2091
19.58 1965
19.6 2073
19.62 1958
19.64 2013
19.66 2087
19.68 1904
19.7 1888
19.72 1907
19.74 1896
19.76 1936
19.78 1957
19.8 1885
19.82 1918
19.84 1972
19.86 1905
19.88 1882
19.9 2009
19.92 1996
19.94 2029
19.96 1993
19.98 1964
20 1955