File: xrd-UiO-67/pxrddata/53-9.ASC
3 1873
3.02 1793
3.04 1687
3.06 1654
3.08 1619
3.1 1496
3.12 1539
3.14 1445
3.16 1480
3.18 1439
3.2 1427
3.22 1406
3.24 1415
3.26 1371
3.28 1373
3.3 1369
3.32 1347
3.34 1291
3.36 1228
3.38 1286
3.4 1305
3.42 1254
3.44 1251
3.46 1241
3.48 1239
3.5 1295
3.52 1195
3.54 1164
3.56 1146
3.58 1147
3.6 1128
3.62 1075
3.64 1057
3.66 1135
3.68 1053
3.7 1066
3.72 1074
3.74 1073
3.76 1055
3.78 1055
3.8 998
3.82 1016
3.84 1028
3.86 1024
3.88 953
3.9 941
3.92 951
3.94 966
3.96 996
3.98 956
4 1010
4.02 984
4.04 944
4.06 966
4.08 961
4.1 1001
4.12 898
4.14 931
4.16 970
4.18 918
4.2 864
4.22 824
4.24 886
4.26 808
4.28 818
4.3 869
4.32 813
4.34 773
4.36 777
4.38 750
4.4 787
4.42 803
4.44 758
4.46 757
4.48 730
4.5 766
4.52 775
4.54 786
4.56 769
4.58 744
4.6 815
4.62 774
4.64 759
4.66 720
4.68 718
4.7 748
4.72 716
4.74 725
4.76 769
4.78 755
4.8 663
4.82 723
4.84 742
4.86 707
4.88 753
4.9 762
4.92 750
4.94 746
4.96 806
4.98 744
5 759
5.02 740
5.04 801
5.06 755
5.08 757
5.1 757
5.12 836
5.14 748
5.16 790
5.18 836
5.2 807
5.22 814
5.24 885
5.26 881
5.28 850
5.3 913
5.32 944
5.34 977
5.36 970
5.38 1068
5.4 1057
5.42 1117
5.44 1036
5.46 1008
5.48 985
5.5 1002
5.52 1008
5.54 1006
5.56 1057
5.58 1061
5.6 1136
5.62 1117
5.64 1158
5.66 1294
5.68 1277
5.7 1392
5.72 1403
5.74 1554
5.76 1621
5.78 1560
5.8 1398
5.82 1234
5.84 1103
5.86 953
5.88 891
5.9 751
5.92 781
5.94 745
5.96 714
5.98 771
6 708
6.02 671
6.04 718
6.06 707
6.08 716
6.1 692
6.12 627
6.14 639
6.16 691
6.18 676
6.2 660
6.22 615
6.24 642
6.26 641
6.28 649
6.3 643
6.32 629
6.34 670
6.36 671
6.38 614
6.4 592
6.42 650
6.44 667
6.46 693
6.48 655
6.5 664
6.52 669
6.54 643
6.56 639
6.58 635
6.6 644
6.62 650
6.64 684
6.66 648
6.68 640
6.7 672
6.72 689
6.74 658
6.76 663
6.78 661
6.8 653
6.82 659
6.84 626
6.86 620
6.88 581
6.9 604
6.92 582
6.94 593
6.96 581
6.98 634
7 627
7.02 590
7.04 568
7.06 575
7.08 549
7.1 571
7.12 591
7.14 609
7.16 616
7.18 545
7.2 591
7.22 558
7.24 611
7.26 562
7.28 539
7.3 568
7.32 576
7.34 610
7.36 553
7.38 558
7.4 586
7.42 545
7.44 532
7.46 586
7.48 568
7.5 551
7.52 556
7.54 552
7.56 601
7.58 574
7.6 587
7.62 607
7.64 587
7.66 599
7.68 550
7.7 564
7.72 577
7.74 529
7.76 549
7.78 595
7.8 557
7.82 553
7.84 557
7.86 559
7.88 609
7.9 605
7.92 523
7.94 574
7.96 627
7.98 570
8 571
8.02 555
8.04 552
8.06 581
8.08 518
8.1 560
8.12 586
8.14 609
8.16 557
8.18 554
8.2 609
8.22 569
8.24 563
8.26 561
8.28 566
8.3 575
8.32 565
8.34 557
8.36 578
8.38 590
8.4 568
8.42 590
8.44 555
8.46 526
8.48 546
8.5 577
8.52 555
8.54 563
8.56 553
8.58 564
8.6 583
8.62 553
8.64 570
8.66 585
8.68 583
8.7 616
8.72 564
8.74 582
8.76 593
8.78 570
8.8 595
8.82 621
8.84 614
8.86 633
8.88 604
8.9 582
8.92 581
8.94 594
8.96 627
8.98 601
9 597
9.02 674
9.04 618
9.06 618
9.08 630
9.1 645
9.12 690
9.14 675
9.16 730
9.18 714
9.2 735
9.22 812
9.24 792
9.26 899
9.28 923
9.3 1013
9.32 992
9.34 952
9.36 907
9.38 793
9.4 682
9.42 633
9.44 614
9.46 632
9.48 618
9.5 603
9.52 648
9.54 583
9.56 632
9.58 588
9.6 627
9.62 584
9.64 603
9.66 605
9.68 633
9.7 595
9.72 610
9.74 621
9.76 623
9.78 610
9.8 640
9.82 594
9.84 620
9.86 625
9.88 653
9.9 638
9.92 662
9.94 619
9.96 595
9.98 660
10 615
10.02 622
10.04 641
10.06 651
10.08 670
10.1 691
10.12 698
10.14 682
10.16 680
10.18 728
10.2 686
10.22 633
10.24 638
10.26 601
10.28 628
10.3 606
10.32 652
10.34 593
10.36 617
10.38 598
10.4 604
10.42 606
10.44 607
10.46 604
10.48 613
10.5 617
10.52 575
10.54 650
10.56 615
10.58 623
10.6 606
10.62 640
10.64 649
10.66 705
10.68 714
10.7 679
10.72 696
10.74 720
10.76 724
10.78 793
10.8 711
10.82 703
10.84 734
10.86 826
10.88 834
10.9 806
10.92 903
10.94 923
10.96 800
10.98 792
11 737
11.02 672
11.04 638
11.06 660
11.08 677
11.1 610
11.12 582
11.14 615
11.16 586
11.18 602
11.2 600
11.22 598
11.24 596
11.26 617
11.28 658
11.3 641
11.32 655
11.34 610
11.36 657
11.38 670
11.4 668
11.42 645
11.44 707
11.46 685
11.48 718
11.5 679
11.52 657
11.54 666
11.56 630
11.58 565
11.6 594
11.62 600
11.64 644
11.66 584
11.68 587
11.7 622
11.72 607
11.74 621
11.76 561
11.78 581
11.8 591
11.82 603
11.84 557
11.86 590
11.88 589
11.9 569
11.92 603
11.94 590
11.96 657
11.98 656
12 621
12.02 608
12.04 621
12.06 621
12.08 594
12.1 638
12.12 620
12.14 620
12.16 631
12.18 613
12.2 675
12.22 653
12.24 603
12.26 612
12.28 613
12.3 652
12.32 633
12.34 644
12.36 634
12.38 650
12.4 604
12.42 614
12.44 622
12.46 603
12.48 586
12.5 583
12.52 606
12.54 648
12.56 604
12.58 608
12.6 602
12.62 602
12.64 603
12.66 590
12.68 589
12.7 650
12.72 571
12.74 582
12.76 572
12.78 630
12.8 598
12.82 606
12.84 618
12.86 583
12.88 625
12.9 608
12.92 601
12.94 595
12.96 608
12.98 605
13 626
13.02 594
13.04 613
13.06 606
13.08 598
13.1 618
13.12 570
13.14 630
13.16 629
13.18 653
13.2 660
13.22 652
13.24 609
13.26 632
13.28 650
13.3 675
13.32 694
13.34 649
13.36 670
13.38 640
13.4 656
13.42 657
13.44 668
13.46 635
13.48 669
13.5 643
13.52 664
13.54 709
13.56 663
13.58 687
13.6 667
13.62 656
13.64 614
13.66 630
13.68 640
13.7 619
13.72 711
13.74 642
13.76 658
13.78 692
13.8 673
13.82 662
13.84 671
13.86 653
13.88 638
13.9 660
13.92 673
13.94 663
13.96 668
13.98 649
14 685
14.02 669
14.04 696
14.06 755
14.08 697
14.1 708
14.12 715
14.14 699
14.16 698
14.18 674
14.2 668
14.22 716
14.24 712
14.26 661
14.28 700
14.3 728
14.32 726
14.34 678
14.36 773
14.38 734
14.4 735
14.42 738
14.44 686
14.46 664
14.48 781
14.5 762
14.52 697
14.54 704
14.56 779
14.58 683
14.6 780
14.62 741
14.64 691
14.66 724
14.68 696
14.7 758
14.72 729
14.74 755
14.76 772
14.78 737
14.8 750
14.82 767
14.84 758
14.86 787
14.88 725
14.9 771
14.92 757
14.94 774
14.96 781
14.98 745
15 732
15.02 717
15.04 731
15.06 751
15.08 719
15.1 717
15.12 730
15.14 747
15.16 755
15.18 784
15.2 767
15.22 741
15.24 777
15.26 780
15.28 821
15.3 763
15.32 773
15.34 741
15.36 784
15.38 756
15.4 776
15.42 795
15.44 774
15.46 773
15.48 804
15.5 790
15.52 773
15.54 772
15.56 733
15.58 757
15.6 802
15.62 774
15.64 740
15.66 807
15.68 766
15.7 820
15.72 820
15.74 779
15.76 810
15.78 815
15.8 807
15.82 818
15.84 789
15.86 774
15.88 805
15.9 803
15.92 827
15.94 821
15.96 820
15.98 820
16 890
16.02 820
16.04 857
16.06 845
16.08 859
16.1 853
16.12 864
16.14 847
16.16 892
16.18 861
16.2 861
16.22 854
16.24 877
16.26 921
16.28 851
16.3 920
16.32 867
16.34 875
16.36 873
16.38 895
16.4 901
16.42 854
16.44 904
16.46 879
16.48 869
16.5 894
16.52 887
16.54 871
16.56 872
16.58 861
16.6 848
16.62 945
16.64 884
16.66 912
16.68 910
16.7 903
16.72 917
16.74 942
16.76 990
16.78 972
16.8 928
16.82 998
16.84 968
16.86 981
16.88 1023
16.9 1052
16.92 1017
16.94 1005
16.96 966
16.98 1013
17 956
17.02 984
17.04 950
17.06 932
17.08 948
17.1 974
17.12 945
17.14 972
17.16 966
17.18 990
17.2 980
17.22 980
17.24 1052
17.26 964
17.28 1024
17.3 955
17.32 979
17.34 998
17.36 977
17.38 983
17.4 993
17.42 1030
17.44 1030
17.46 1010
17.48 1048
17.5 1061
17.52 1002
17.54 992
17.56 1029
17.58 987
17.6 999
17.62 1058
17.64 1017
17.66 989
17.68 1017
17.7 1018
17.72 1005
17.74 1092
17.76 1056
17.78 1029
17.8 1000
17.82 1109
17.84 1032
17.86 1020
17.88 1036
17.9 1120
17.92 1071
17.94 1085
17.96 1026
17.98 1056
18 1055
18.02 1068
18.04 1033
18.06 1100
18.08 1145
18.1 1100
18.12 1116
18.14 1080
18.16 1098
18.18 1111
18.2 1105
18.22 1172
18.24 1095
18.26 1105
18.28 1126
18.3 1121
18.32 1093
18.34 1089
18.36 1156
18.38 1178
18.4 1140
18.42 1112
18.44 1107
18.46 1143
18.48 1190
18.5 1121
18.52 1158
18.54 1137
18.56 1154
18.58 1218
18.6 1174
18.62 1184
18.64 1215
18.66 1155
18.68 1159
18.7 1182
18.72 1210
18.74 1188
18.76 1211
18.78 1233
18.8 1265
18.82 1207
18.84 1184
18.86 1300
18.88 1233
18.9 1232
18.92 1275
18.94 1233
18.96 1213
18.98 1336
19 1291
19.02 1317
19.04 1368
19.06 1313
19.08 1360
19.1 1320
19.12 1302
19.14 1304
19.16 1310
19.18 1276
19.2 1282
19.22 1313
19.24 1251
19.26 1282
19.28 1277
19.3 1305
19.32 1302
19.34 1355
19.36 1361
19.38 1356
19.4 1299
19.42 1373
19.44 1395
19.46 1456
19.48 1436
19.5 1339
19.52 1398
19.54 1307
19.56 1409
19.58 1368
19.6 1302
19.62 1343
19.64 1366
19.66 1288
19.68 1309
19.7 1284
19.72 1254
19.74 1313
19.76 1325
19.78 1291
19.8 1344
19.82 1375
19.84 1298
19.86 1369
19.88 1311
19.9 1300
19.92 1409
19.94 1268
19.96 1312
19.98 1330
20 1249