File: xrd-UiO-67/pxrddata/6-12.ASC
3 2160
3.02 1958
3.04 1843
3.06 1729
3.08 1584
3.1 1492
3.12 1481
3.14 1458
3.16 1461
3.18 1434
3.2 1432
3.22 1415
3.24 1393
3.26 1338
3.28 1434
3.3 1318
3.32 1285
3.34 1339
3.36 1289
3.38 1320
3.4 1284
3.42 1244
3.44 1259
3.46 1288
3.48 1242
3.5 1245
3.52 1206
3.54 1141
3.56 1190
3.58 1183
3.6 1133
3.62 1180
3.64 1159
3.66 1156
3.68 1133
3.7 1114
3.72 1165
3.74 1106
3.76 1113
3.78 1071
3.8 1062
3.82 1063
3.84 1029
3.86 1041
3.88 1072
3.9 1036
3.92 1080
3.94 1031
3.96 1002
3.98 1048
4 1016
4.02 1018
4.04 991
4.06 960
4.08 969
4.1 951
4.12 944
4.14 933
4.16 889
4.18 964
4.2 932
4.22 918
4.24 921
4.26 880
4.28 851
4.3 883
4.32 899
4.34 872
4.36 906
4.38 900
4.4 891
4.42 892
4.44 883
4.46 927
4.48 886
4.5 896
4.52 854
4.54 855
4.56 865
4.58 858
4.6 827
4.62 886
4.64 891
4.66 888
4.68 853
4.7 820
4.72 771
4.74 816
4.76 824
4.78 820
4.8 785
4.82 797
4.84 809
4.86 753
4.88 791
4.9 810
4.92 831
4.94 821
4.96 802
4.98 776
5 784
5.02 829
5.04 804
5.06 808
5.08 757
5.1 819
5.12 823
5.14 752
5.16 771
5.18 772
5.2 799
5.22 772
5.24 762
5.26 788
5.28 814
5.3 756
5.32 769
5.34 764
5.36 785
5.38 751
5.4 736
5.42 745
5.44 773
5.46 748
5.48 727
5.5 763
5.52 737
5.54 788
5.56 741
5.58 759
5.6 732
5.62 775
5.64 737
5.66 806
5.68 767
5.7 724
5.72 740
5.74 778
5.76 735
5.78 763
5.8 750
5.82 765
5.84 764
5.86 789
5.88 768
5.9 734
5.92 723
5.94 742
5.96 737
5.98 756
6 736
6.02 788
6.04 769
6.06 725
6.08 749
6.1 731
6.12 776
6.14 748
6.16 775
6.18 740
6.2 719
6.22 739
6.24 775
6.26 758
6.28 751
6.3 743
6.32 745
6.34 781
6.36 758
6.38 774
6.4 811
6.42 736
6.44 762
6.46 734
6.48 761
6.5 756
6.52 771
6.54 754
6.56 685
6.58 748
6.6 730
6.62 787
6.64 755
6.66 724
6.68 731
6.7 778
6.72 774
6.74 774
6.76 709
6.78 745
6.8 760
6.82 770
6.84 795
6.86 747
6.88 731
6.9 729
6.92 762
6.94 757
6.96 802
6.98 745
7 790
7.02 712
7.04 759
7.06 722
7.08 743
7.1 784
7.12 778
7.14 765
7.16 721
7.18 722
7.2 753
7.22 752
7.24 755
7.26 774
7.28 741
7.3 762
7.32 783
7.34 748
7.36 764
7.38 842
7.4 746
7.42 769
7.44 788
7.46 755
7.48 749
7.5 728
7.52 695
7.54 766
7.56 723
7.58 767
7.6 786
7.62 756
7.64 801
7.66 754
7.68 810
7.7 767
7.72 721
7.74 793
7.76 733
7.78 780
7.8 749
7.82 726
7.84 746
7.86 798
7.88 775
7.9 751
7.92 704
7.94 742
7.96 768
7.98 803
8 780
8.02 805
8.04 789
8.06 701
8.08 791
8.1 755
8.12 770
8.14 793
8.16 768
8.18 793
8.2 769
8.22 722
8.24 754
8.26 715
8.28 745
8.3 727
8.32 770
8.34 700
8.36 733
8.38 716
8.4 729
8.42 824
8.44 727
8.46 787
8.48 749
8.5 794
8.52 761
8.54 773
8.56 780
8.58 802
8.6 725
8.62 727
8.64 792
8.66 774
8.68 766
8.7 836
8.72 845
8.74 763
8.76 820
8.78 823
8.8 790
8.82 771
8.84 850
8.86 786
8.88 770
8.9 824
8.92 834
8.94 851
8.96 844
8.98 846
9 831
9.02 817
9.04 828
9.06 814
9.08 861
9.1 839
9.12 808
9.14 788
9.16 830
9.18 859
9.2 815
9.22 778
9.24 756
9.26 770
9.28 792
9.3 787
9.32 768
9.34 762
9.36 773
9.38 749
9.4 722
9.42 763
9.44 772
9.46 738
9.48 782
9.5 738
9.52 766
9.54 709
9.56 785
9.58 762
9.6 729
9.62 729
9.64 722
9.66 726
9.68 737
9.7 743
9.72 680
9.74 695
9.76 734
9.78 710
9.8 732
9.82 744
9.84 687
9.86 703
9.88 734
9.9 695
9.92 782
9.94 733
9.96 719
9.98 751
10 702
10.02 772
10.04 738
10.06 691
10.08 711
10.1 734
10.12 746
10.14 681
10.16 743
10.18 676
10.2 738
10.22 757
10.24 690
10.26 777
10.28 744
10.3 734
10.32 700
10.34 718
10.36 712
10.38 685
10.4 696
10.42 673
10.44 726
10.46 740
10.48 713
10.5 713
10.52 760
10.54 685
10.56 737
10.58 721
10.6 694
10.62 729
10.64 746
10.66 724
10.68 769
10.7 743
10.72 740
10.74 692
10.76 751
10.78 705
10.8 722
10.82 700
10.84 706
10.86 753
10.88 736
10.9 743
10.92 757
10.94 724
10.96 695
10.98 707
11 758
11.02 685
11.04 744
11.06 767
11.08 757
11.1 700
11.12 703
11.14 765
11.16 688
11.18 693
11.2 708
11.22 750
11.24 731
11.26 685
11.28 775
11.3 689
11.32 721
11.34 659
11.36 754
11.38 728
11.4 713
11.42 775
11.44 734
11.46 732
11.48 717
11.5 707
11.52 743
11.54 751
11.56 735
11.58 720
11.6 737
11.62 719
11.64 730
11.66 717
11.68 659
11.7 734
11.72 766
11.74 749
11.76 737
11.78 727
11.8 764
11.82 746
11.84 676
11.86 727
11.88 739
11.9 726
11.92 764
11.94 755
11.96 677
11.98 769
12 747
12.02 697
12.04 711
12.06 739
12.08 745
12.1 773
12.12 757
12.14 729
12.16 710
12.18 767
12.2 747
12.22 747
12.24 727
12.26 757
12.28 708
12.3 732
12.32 770
12.34 751
12.36 741
12.38 714
12.4 758
12.42 724
12.44 758
12.46 743
12.48 728
12.5 782
12.52 743
12.54 788
12.56 764
12.58 785
12.6 824
12.62 737
12.64 745
12.66 768
12.68 763
12.7 772
12.72 728
12.74 751
12.76 774
12.78 731
12.8 745
12.82 732
12.84 764
12.86 764
12.88 734
12.9 803
12.92 734
12.94 773
12.96 813
12.98 746
13 754
13.02 781
13.04 737
13.06 754
13.08 769
13.1 729
13.12 771
13.14 781
13.16 800
13.18 759
13.2 727
13.22 740
13.24 761
13.26 789
13.28 759
13.3 713
13.32 712
13.34 762
13.36 754
13.38 805
13.4 774
13.42 780
13.44 751
13.46 788
13.48 777
13.5 772
13.52 741
13.54 761
13.56 812
13.58 750
13.6 752
13.62 814
13.64 805
13.66 791
13.68 782
13.7 748
13.72 745
13.74 808
13.76 802
13.78 796
13.8 817
13.82 785
13.84 811
13.86 761
13.88 774
13.9 807
13.92 782
13.94 832
13.96 809
13.98 779
14 828
14.02 805
14.04 798
14.06 803
14.08 784
14.1 837
14.12 751
14.14 838
14.16 805
14.18 849
14.2 819
14.22 813
14.24 817
14.26 779
14.28 811
14.3 776
14.32 795
14.34 821
14.36 796
14.38 842
14.4 851
14.42 793
14.44 811
14.46 857
14.48 828
14.5 849
14.52 810
14.54 814
14.56 807
14.58 811
14.6 840
14.62 840
14.64 803
14.66 871
14.68 806
14.7 860
14.72 834
14.74 857
14.76 849
14.78 831
14.8 855
14.82 852
14.84 818
14.86 907
14.88 860
14.9 837
14.92 905
14.94 844
14.96 866
14.98 883
15 879
15.02 896
15.04 827
15.06 836
15.08 877
15.1 845
15.12 900
15.14 916
15.16 892
15.18 897
15.2 872
15.22 869
15.24 861
15.26 910
15.28 884
15.3 952
15.32 914
15.34 904
15.36 904
15.38 965
15.4 855
15.42 917
15.44 938
15.46 845
15.48 922
15.5 924
15.52 919
15.54 919
15.56 929
15.58 923
15.6 946
15.62 930
15.64 886
15.66 960
15.68 933
15.7 941
15.72 957
15.74 919
15.76 888
15.78 948
15.8 923
15.82 982
15.84 964
15.86 929
15.88 998
15.9 1010
15.92 977
15.94 969
15.96 955
15.98 1015
16 943
16.02 996
16.04 962
16.06 1026
16.08 1016
16.1 994
16.12 994
16.14 996
16.16 982
16.18 986
16.2 1039
16.22 1046
16.24 1010
16.26 1029
16.28 1042
16.3 996
16.32 1005
16.34 1030
16.36 1075
16.38 1083
16.4 1064
16.42 1080
16.44 1070
16.46 1037
16.48 1036
16.5 1077
16.52 1058
16.54 1055
16.56 1045
16.58 988
16.6 1071
16.62 1067
16.64 1057
16.66 1100
16.68 1056
16.7 1075
16.72 1101
16.74 1108
16.76 1142
16.78 1121
16.8 1112
16.82 1188
16.84 1175
16.86 1184
16.88 1218
16.9 1207
16.92 1269
16.94 1212
16.96 1296
16.98 1260
17 1342
17.02 1432
17.04 1425
17.06 1511
17.08 1512
17.1 1464
17.12 1482
17.14 1562
17.16 1570
17.18 1589
17.2 1505
17.22 1492
17.24 1394
17.26 1326
17.28 1225
17.3 1217
17.32 1173
17.34 1227
17.36 1240
17.38 1222
17.4 1254
17.42 1266
17.44 1271
17.46 1193
17.48 1182
17.5 1198
17.52 1265
17.54 1175
17.56 1190
17.58 1235
17.6 1271
17.62 1256
17.64 1230
17.66 1283
17.68 1313
17.7 1324
17.72 1275
17.74 1324
17.76 1252
17.78 1273
17.8 1334
17.82 1246
17.84 1241
17.86 1305
17.88 1284
17.9 1322
17.92 1273
17.94 1336
17.96 1286
17.98 1300
18 1378
18.02 1352
18.04 1359
18.06 1378
18.08 1324
18.1 1332
18.12 1379
18.14 1402
18.16 1351
18.18 1333
18.2 1361
18.22 1368
18.24 1419
18.26 1399
18.28 1400
18.3 1353
18.32 1384
18.34 1435
18.36 1414
18.38 1407
18.4 1431
18.42 1470
18.44 1499
18.46 1410
18.48 1445
18.5 1494
18.52 1392
18.54 1421
18.56 1521
18.58 1474
18.6 1444
18.62 1521
18.64 1536
18.66 1458
18.68 1446
18.7 1466
18.72 1511
18.74 1496
18.76 1538
18.78 1569
18.8 1573
18.82 1564
18.84 1526
18.86 1539
18.88 1536
18.9 1607
18.92 1621
18.94 1574
18.96 1498
18.98 1580
19 1574
19.02 1590
19.04 1622
19.06 1558
19.08 1553
19.1 1552
19.12 1628
19.14 1565
19.16 1682
19.18 1645
19.2 1626
19.22 1605
19.24 1590
19.26 1548
19.28 1630
19.3 1659
19.32 1633
19.34 1538
19.36 1700
19.38 1587
19.4 1647
19.42 1634
19.44 1698
19.46 1629
19.48 1677
19.5 1730
19.52 1706
19.54 1693
19.56 1702
19.58 1688
19.6 1773
19.62 1768
19.64 1716
19.66 1668
19.68 1742
19.7 1702
19.72 1768
19.74 1817
19.76 1793
19.78 1709
19.8 1750
19.82 1755
19.84 1752
19.86 1681
19.88 1804
19.9 1783
19.92 1793
19.94 1743
19.96 1852
19.98 1812
20 1821