File: xrd-UiO-67/pxrddata/6-13.ASC
3 2066
3.02 1829
3.04 1767
3.06 1683
3.08 1572
3.1 1543
3.12 1488
3.14 1493
3.16 1526
3.18 1531
3.2 1442
3.22 1436
3.24 1408
3.26 1426
3.28 1415
3.3 1345
3.32 1455
3.34 1348
3.36 1372
3.38 1424
3.4 1354
3.42 1406
3.44 1353
3.46 1388
3.48 1359
3.5 1384
3.52 1333
3.54 1357
3.56 1340
3.58 1368
3.6 1314
3.62 1339
3.64 1384
3.66 1321
3.68 1340
3.7 1277
3.72 1287
3.74 1265
3.76 1271
3.78 1259
3.8 1346
3.82 1338
3.84 1247
3.86 1272
3.88 1286
3.9 1239
3.92 1324
3.94 1354
3.96 1308
3.98 1325
4 1238
4.02 1311
4.04 1347
4.06 1230
4.08 1292
4.1 1317
4.12 1327
4.14 1284
4.16 1304
4.18 1262
4.2 1290
4.22 1243
4.24 1323
4.26 1296
4.28 1328
4.3 1246
4.32 1311
4.34 1326
4.36 1261
4.38 1295
4.4 1328
4.42 1359
4.44 1347
4.46 1326
4.48 1299
4.5 1338
4.52 1351
4.54 1381
4.56 1378
4.58 1355
4.6 1332
4.62 1382
4.64 1359
4.66 1341
4.68 1370
4.7 1333
4.72 1314
4.74 1284
4.76 1326
4.78 1378
4.8 1425
4.82 1395
4.84 1335
4.86 1383
4.88 1389
4.9 1425
4.92 1397
4.94 1360
4.96 1359
4.98 1388
5 1399
5.02 1431
5.04 1403
5.06 1384
5.08 1443
5.1 1397
5.12 1431
5.14 1372
5.16 1296
5.18 1343
5.2 1428
5.22 1467
5.24 1482
5.26 1413
5.28 1452
5.3 1477
5.32 1400
5.34 1390
5.36 1403
5.38 1437
5.4 1503
5.42 1374
5.44 1391
5.46 1344
5.48 1452
5.5 1401
5.52 1452
5.54 1430
5.56 1394
5.58 1354
5.6 1431
5.62 1396
5.64 1357
5.66 1393
5.68 1406
5.7 1421
5.72 1365
5.74 1381
5.76 1359
5.78 1378
5.8 1378
5.82 1344
5.84 1378
5.86 1388
5.88 1359
5.9 1347
5.92 1276
5.94 1262
5.96 1245
5.98 1300
6 1269
6.02 1296
6.04 1254
6.06 1225
6.08 1237
6.1 1207
6.12 1272
6.14 1207
6.16 1237
6.18 1200
6.2 1211
6.22 1197
6.24 1172
6.26 1212
6.28 1259
6.3 1244
6.32 1195
6.34 1161
6.36 1130
6.38 1101
6.4 1185
6.42 1199
6.44 1197
6.46 1156
6.48 1083
6.5 1113
6.52 1137
6.54 1045
6.56 1114
6.58 1137
6.6 1069
6.62 1042
6.64 1088
6.66 1113
6.68 1057
6.7 1045
6.72 1041
6.74 1039
6.76 1004
6.78 1036
6.8 1055
6.82 1041
6.84 1004
6.86 989
6.88 1001
6.9 1010
6.92 1093
6.94 1010
6.96 1049
6.98 982
7 967
7.02 1005
7.04 975
7.06 1022
7.08 957
7.1 1015
7.12 970
7.14 973
7.16 976
7.18 1022
7.2 986
7.22 939
7.24 936
7.26 906
7.28 962
7.3 928
7.32 996
7.34 953
7.36 930
7.38 932
7.4 935
7.42 903
7.44 918
7.46 926
7.48 915
7.5 949
7.52 915
7.54 903
7.56 954
7.58 967
7.6 896
7.62 941
7.64 876
7.66 913
7.68 950
7.7 958
7.72 920
7.74 962
7.76 947
7.78 861
7.8 877
7.82 912
7.84 904
7.86 894
7.88 884
7.9 899
7.92 908
7.94 853
7.96 881
7.98 891
8 886
8.02 881
8.04 885
8.06 885
8.08 931
8.1 901
8.12 908
8.14 878
8.16 911
8.18 910
8.2 905
8.22 920
8.24 899
8.26 935
8.28 904
8.3 873
8.32 865
8.34 944
8.36 903
8.38 836
8.4 887
8.42 918
8.44 937
8.46 870
8.48 891
8.5 825
8.52 851
8.54 849
8.56 825
8.58 875
8.6 893
8.62 867
8.64 826
8.66 796
8.68 896
8.7 830
8.72 861
8.74 889
8.76 907
8.78 895
8.8 836
8.82 897
8.84 871
8.86 874
8.88 962
8.9 903
8.92 890
8.94 886
8.96 858
8.98 840
9 886
9.02 870
9.04 867
9.06 861
9.08 897
9.1 872
9.12 859
9.14 874
9.16 850
9.18 889
9.2 873
9.22 869
9.24 838
9.26 874
9.28 903
9.3 922
9.32 904
9.34 890
9.36 866
9.38 885
9.4 866
9.42 850
9.44 864
9.46 884
9.48 954
9.5 917
9.52 947
9.54 895
9.56 925
9.58 912
9.6 928
9.62 930
9.64 913
9.66 961
9.68 921
9.7 933
9.72 890
9.74 930
9.76 928
9.78 926
9.8 971
9.82 951
9.84 902
9.86 917
9.88 945
9.9 936
9.92 920
9.94 923
9.96 923
9.98 871
10 979
10.02 960
10.04 902
10.06 917
10.08 956
10.1 967
10.12 937
10.14 884
10.16 898
10.18 989
10.2 928
10.22 924
10.24 880
10.26 893
10.28 936
10.3 936
10.32 877
10.34 940
10.36 910
10.38 942
10.4 896
10.42 916
10.44 926
10.46 869
10.48 945
10.5 894
10.52 904
10.54 922
10.56 857
10.58 910
10.6 859
10.62 865
10.64 918
10.66 864
10.68 939
10.7 890
10.72 893
10.74 907
10.76 913
10.78 947
10.8 915
10.82 908
10.84 905
10.86 978
10.88 942
10.9 902
10.92 849
10.94 909
10.96 892
10.98 920
11 912
11.02 915
11.04 927
11.06 917
11.08 886
11.1 917
11.12 894
11.14 911
11.16 917
11.18 881
11.2 952
11.22 923
11.24 923
11.26 941
11.28 929
11.3 893
11.32 917
11.34 934
11.36 916
11.38 925
11.4 910
11.42 947
11.44 920
11.46 924
11.48 899
11.5 916
11.52 932
11.54 885
11.56 927
11.58 897
11.6 924
11.62 938
11.64 897
11.66 909
11.68 922
11.7 943
11.72 921
11.74 935
11.76 842
11.78 919
11.8 939
11.82 936
11.84 855
11.86 941
11.88 924
11.9 852
11.92 907
11.94 947
11.96 896
11.98 926
12 929
12.02 918
12.04 880
12.06 869
12.08 944
12.1 943
12.12 952
12.14 943
12.16 913
12.18 886
12.2 868
12.22 908
12.24 931
12.26 871
12.28 885
12.3 928
12.32 925
12.34 919
12.36 931
12.38 945
12.4 895
12.42 910
12.44 876
12.46 923
12.48 946
12.5 925
12.52 957
12.54 960
12.56 978
12.58 934
12.6 946
12.62 936
12.64 918
12.66 986
12.68 885
12.7 1003
12.72 922
12.74 964
12.76 945
12.78 968
12.8 943
12.82 947
12.84 915
12.86 930
12.88 947
12.9 910
12.92 943
12.94 967
12.96 967
12.98 891
13 924
13.02 992
13.04 961
13.06 944
13.08 941
13.1 974
13.12 1014
13.14 1000
13.16 1014
13.18 969
13.2 992
13.22 991
13.24 933
13.26 991
13.28 991
13.3 982
13.32 947
13.34 963
13.36 988
13.38 1001
13.4 956
13.42 956
13.44 980
13.46 991
13.48 969
13.5 1019
13.52 957
13.54 971
13.56 974
13.58 1053
13.6 998
13.62 973
13.64 1028
13.66 1014
13.68 960
13.7 984
13.72 987
13.74 1000
13.76 1042
13.78 1019
13.8 976
13.82 1052
13.84 1031
13.86 1045
13.88 1058
13.9 1050
13.92 1038
13.94 1050
13.96 998
13.98 1041
14 1038
14.02 984
14.04 1036
14.06 1061
14.08 1020
14.1 1065
14.12 1025
14.14 1045
14.16 1009
14.18 1050
14.2 1060
14.22 1080
14.24 1038
14.26 1055
14.28 1113
14.3 1058
14.32 1015
14.34 1057
14.36 1020
14.38 1020
14.4 1085
14.42 1101
14.44 1025
14.46 1101
14.48 1038
14.5 1061
14.52 1061
14.54 1035
14.56 1096
14.58 1083
14.6 1086
14.62 1075
14.64 1105
14.66 1087
14.68 1112
14.7 1037
14.72 1124
14.74 1070
14.76 1064
14.78 1088
14.8 1141
14.82 1124
14.84 1056
14.86 1103
14.88 1103
14.9 1080
14.92 1061
14.94 1099
14.96 1078
14.98 1100
15 1071
15.02 1129
15.04 1198
15.06 1117
15.08 1123
15.1 1122
15.12 1115
15.14 1085
15.16 1130
15.18 1110
15.2 1139
15.22 1119
15.24 1142
15.26 1120
15.28 1138
15.3 1115
15.32 1079
15.34 1181
15.36 1149
15.38 1124
15.4 1153
15.42 1055
15.44 1117
15.46 1158
15.48 1108
15.5 1183
15.52 1112
15.54 1199
15.56 1158
15.58 1188
15.6 1165
15.62 1222
15.64 1206
15.66 1171
15.68 1191
15.7 1150
15.72 1161
15.74 1195
15.76 1148
15.78 1109
15.8 1210
15.82 1169
15.84 1213
15.86 1238
15.88 1174
15.9 1201
15.92 1191
15.94 1175
15.96 1216
15.98 1229
16 1205
16.02 1256
16.04 1230
16.06 1247
16.08 1209
16.1 1268
16.12 1213
16.14 1202
16.16 1224
16.18 1292
16.2 1265
16.22 1188
16.24 1254
16.26 1221
16.28 1256
16.3 1237
16.32 1214
16.34 1283
16.36 1306
16.38 1280
16.4 1314
16.42 1254
16.44 1263
16.46 1257
16.48 1184
16.5 1250
16.52 1276
16.54 1297
16.56 1255
16.58 1267
16.6 1266
16.62 1315
16.64 1284
16.66 1328
16.68 1260
16.7 1262
16.72 1322
16.74 1303
16.76 1327
16.78 1316
16.8 1355
16.82 1283
16.84 1294
16.86 1366
16.88 1412
16.9 1425
16.92 1468
16.94 1379
16.96 1384
16.98 1384
17 1377
17.02 1365
17.04 1430
17.06 1398
17.08 1438
17.1 1375
17.12 1368
17.14 1336
17.16 1364
17.18 1385
17.2 1415
17.22 1381
17.24 1416
17.26 1426
17.28 1413
17.3 1414
17.32 1412
17.34 1413
17.36 1354
17.38 1387
17.4 1406
17.42 1444
17.44 1451
17.46 1479
17.48 1436
17.5 1448
17.52 1409
17.54 1495
17.56 1515
17.58 1502
17.6 1511
17.62 1460
17.64 1518
17.66 1431
17.68 1525
17.7 1450
17.72 1474
17.74 1442
17.76 1514
17.78 1498
17.8 1456
17.82 1494
17.84 1560
17.86 1501
17.88 1492
17.9 1521
17.92 1411
17.94 1501
17.96 1481
17.98 1509
18 1521
18.02 1655
18.04 1533
18.06 1503
18.08 1526
18.1 1589
18.12 1521
18.14 1533
18.16 1609
18.18 1560
18.2 1531
18.22 1637
18.24 1590
18.26 1594
18.28 1585
18.3 1609
18.32 1619
18.34 1606
18.36 1609
18.38 1580
18.4 1628
18.42 1615
18.44 1667
18.46 1674
18.48 1586
18.5 1579
18.52 1616
18.54 1654
18.56 1694
18.58 1733
18.6 1689
18.62 1631
18.64 1577
18.66 1685
18.68 1667
18.7 1621
18.72 1645
18.74 1602
18.76 1704
18.78 1611
18.8 1715
18.82 1671
18.84 1677
18.86 1723
18.88 1608
18.9 1637
18.92 1730
18.94 1719
18.96 1699
18.98 1726
19 1737
19.02 1698
19.04 1717
19.06 1695
19.08 1764
19.1 1742
19.12 1711
19.14 1742
19.16 1775
19.18 1730
19.2 1718
19.22 1718
19.24 1723
19.26 1813
19.28 1809
19.3 1721
19.32 1695
19.34 1782
19.36 1791
19.38 1738
19.4 1783
19.42 1883
19.44 1800
19.46 1781
19.48 1880
19.5 1786
19.52 1831
19.54 1843
19.56 1764
19.58 1784
19.6 1809
19.62 1847
19.64 1757
19.66 1814
19.68 1772
19.7 1873
19.72 1776
19.74 1855
19.76 1837
19.78 1833
19.8 1821
19.82 1778
19.84 1823
19.86 1810
19.88 1782
19.9 1864
19.92 1858
19.94 1853
19.96 1811
19.98 1865
20 1888