File: xrd-UiO-67/pxrddata/6-16.ASC
3 2278
3.02 2260
3.04 1971
3.06 1871
3.08 1796
3.1 1774
3.12 1744
3.14 1623
3.16 1586
3.18 1566
3.2 1584
3.22 1671
3.24 1519
3.26 1530
3.28 1550
3.3 1547
3.32 1504
3.34 1528
3.36 1587
3.38 1501
3.4 1482
3.42 1544
3.44 1483
3.46 1568
3.48 1503
3.5 1479
3.52 1480
3.54 1506
3.56 1442
3.58 1499
3.6 1540
3.62 1488
3.64 1468
3.66 1500
3.68 1531
3.7 1513
3.72 1514
3.74 1626
3.76 1644
3.78 1461
3.8 1653
3.82 1587
3.84 1548
3.86 1568
3.88 1610
3.9 1654
3.92 1665
3.94 1702
3.96 1734
3.98 1793
4 1868
4.02 1933
4.04 1948
4.06 1993
4.08 1970
4.1 2121
4.12 2092
4.14 2039
4.16 1900
4.18 1820
4.2 1704
4.22 1573
4.24 1516
4.26 1398
4.28 1366
4.3 1311
4.32 1280
4.34 1314
4.36 1219
4.38 1254
4.4 1209
4.42 1184
4.44 1186
4.46 1176
4.48 1204
4.5 1189
4.52 1178
4.54 1178
4.56 1206
4.58 1173
4.6 1222
4.62 1187
4.64 1199
4.66 1209
4.68 1241
4.7 1207
4.72 1280
4.74 1277
4.76 1313
4.78 1305
4.8 1343
4.82 1336
4.84 1299
4.86 1342
4.88 1400
4.9 1416
4.92 1473
4.94 1588
4.96 1533
4.98 1560
5 1631
5.02 1702
5.04 1699
5.06 1817
5.08 1812
5.1 1933
5.12 2026
5.14 2073
5.16 2212
5.18 2356
5.2 2439
5.22 2608
5.24 2690
5.26 2956
5.28 3076
5.3 3239
5.32 3495
5.34 3722
5.36 4126
5.38 4799
5.4 5279
5.42 5621
5.44 5422
5.46 4865
5.48 4392
5.5 4090
5.52 4145
5.54 4113
5.56 4370
5.58 4670
5.6 4955
5.62 5282
5.64 5683
5.66 6214
5.68 6961
5.7 7678
5.72 8586
5.74 9549
5.76 10410
5.78 10679
5.8 10222
5.82 8851
5.84 6975
5.86 5124
5.88 3926
5.9 3016
5.92 2478
5.94 2141
5.96 1976
5.98 1723
6 1601
6.02 1551
6.04 1499
6.06 1486
6.08 1415
6.1 1384
6.12 1397
6.14 1335
6.16 1328
6.18 1306
6.2 1288
6.22 1307
6.24 1276
6.26 1273
6.28 1172
6.3 1283
6.32 1283
6.34 1199
6.36 1245
6.38 1239
6.4 1272
6.42 1254
6.44 1290
6.46 1215
6.48 1225
6.5 1331
6.52 1396
6.54 1342
6.56 1365
6.58 1392
6.6 1434
6.62 1488
6.64 1512
6.66 1552
6.68 1669
6.7 1735
6.72 1775
6.74 1790
6.76 1889
6.78 1746
6.8 1719
6.82 1521
6.84 1391
6.86 1338
6.88 1226
6.9 1203
6.92 1179
6.94 1080
6.96 1164
6.98 1101
7 1052
7.02 1013
7.04 1041
7.06 1011
7.08 1022
7.1 978
7.12 999
7.14 1028
7.16 1050
7.18 1048
7.2 999
7.22 982
7.24 968
7.26 1030
7.28 999
7.3 974
7.32 1029
7.34 1009
7.36 1024
7.38 1018
7.4 978
7.42 975
7.44 991
7.46 987
7.48 939
7.5 986
7.52 983
7.54 945
7.56 954
7.58 1037
7.6 947
7.62 1003
7.64 967
7.66 980
7.68 969
7.7 989
7.72 998
7.74 984
7.76 939
7.78 970
7.8 999
7.82 1030
7.84 1083
7.86 1047
7.88 1026
7.9 992
7.92 1065
7.94 1064
7.96 1045
7.98 1072
8 1093
8.02 1079
8.04 1090
8.06 1066
8.08 1151
8.1 1093
8.12 1092
8.14 1189
8.16 1167
8.18 1126
8.2 1069
8.22 1091
8.24 1053
8.26 1032
8.28 1052
8.3 1057
8.32 1051
8.34 966
8.36 1076
8.38 1047
8.4 1031
8.42 1019
8.44 970
8.46 978
8.48 1061
8.5 1058
8.52 961
8.54 991
8.56 996
8.58 1002
8.6 1003
8.62 1008
8.64 1004
8.66 991
8.68 1062
8.7 1020
8.72 1066
8.74 1043
8.76 1071
8.78 969
8.8 1039
8.82 1116
8.84 1103
8.86 1127
8.88 1092
8.9 1136
8.92 1115
8.94 1176
8.96 1185
8.98 1219
9 1191
9.02 1281
9.04 1305
9.06 1353
9.08 1401
9.1 1421
9.12 1548
9.14 1636
9.16 1687
9.18 1755
9.2 1898
9.22 1998
9.24 2216
9.26 2527
9.28 2938
9.3 3294
9.32 3597
9.34 3850
9.36 3380
9.38 2772
9.4 2066
9.42 1594
9.44 1381
9.46 1249
9.48 1156
9.5 1101
9.52 1175
9.54 1114
9.56 1191
9.58 1109
9.6 1122
9.62 1136
9.64 1129
9.66 1157
9.68 1167
9.7 1127
9.72 1137
9.74 1169
9.76 1160
9.78 1208
9.8 1217
9.82 1167
9.84 1229
9.86 1148
9.88 1173
9.9 1196
9.92 1199
9.94 1232
9.96 1288
9.98 1258
10 1334
10.02 1349
10.04 1448
10.06 1399
10.08 1509
10.1 1523
10.12 1632
10.14 1709
10.16 1817
10.18 1886
10.2 1738
10.22 1671
10.24 1532
10.26 1434
10.28 1320
10.3 1252
10.32 1218
10.34 1196
10.36 1196
10.38 1179
10.4 1105
10.42 1108
10.44 1123
10.46 1150
10.48 1043
10.5 1151
10.52 1171
10.54 1246
10.56 1192
10.58 1225
10.6 1219
10.62 1239
10.64 1382
10.66 1386
10.68 1464
10.7 1563
10.72 1548
10.74 1688
10.76 1828
10.78 1828
10.8 1828
10.82 1784
10.84 1742
10.86 1893
10.88 2029
10.9 1997
10.92 2346
10.94 2522
10.96 2633
10.98 2485
11 2335
11.02 1917
11.04 1572
11.06 1383
11.08 1281
11.1 1221
11.12 1273
11.14 1221
11.16 1232
11.18 1209
11.2 1180
11.22 1228
11.24 1178
11.26 1195
11.28 1258
11.3 1250
11.32 1281
11.34 1321
11.36 1366
11.38 1416
11.4 1445
11.42 1536
11.44 1524
11.46 1630
11.48 1575
11.5 1605
11.52 1608
11.54 1524
11.56 1442
11.58 1377
11.6 1278
11.62 1272
11.64 1298
11.66 1155
11.68 1180
11.7 1158
11.72 1124
11.74 1105
11.76 1127
11.78 1121
11.8 1095
11.82 1136
11.84 1104
11.86 1091
11.88 1098
11.9 1097
11.92 1164
11.94 1149
11.96 1140
11.98 1176
12 1136
12.02 1199
12.04 1273
12.06 1236
12.08 1260
12.1 1267
12.12 1244
12.14 1329
12.16 1366
12.18 1365
12.2 1325
12.22 1318
12.24 1308
12.26 1300
12.28 1225
12.3 1202
12.32 1189
12.34 1211
12.36 1185
12.38 1149
12.4 1172
12.42 1101
12.44 1128
12.46 1147
12.48 1101
12.5 1075
12.52 1095
12.54 1087
12.56 1140
12.58 1133
12.6 1030
12.62 1111
12.64 1055
12.66 1005
12.68 1055
12.7 1079
12.72 1001
12.74 1003
12.76 1045
12.78 1074
12.8 1105
12.82 1065
12.84 1075
12.86 1065
12.88 1026
12.9 1090
12.92 1039
12.94 1100
12.96 1107
12.98 1026
13 1109
13.02 1062
13.04 1049
13.06 1116
13.08 1127
13.1 1129
13.12 1088
13.14 1161
13.16 1130
13.18 1131
13.2 1134
13.22 1123
13.24 1121
13.26 1209
13.28 1162
13.3 1218
13.32 1228
13.34 1190
13.36 1210
13.38 1173
13.4 1231
13.42 1221
13.44 1204
13.46 1193
13.48 1172
13.5 1161
13.52 1135
13.54 1206
13.56 1177
13.58 1123
13.6 1126
13.62 1096
13.64 1095
13.66 1126
13.68 1143
13.7 1101
13.72 1126
13.74 1092
13.76 1130
13.78 1063
13.8 1159
13.82 1134
13.84 1150
13.86 1081
13.88 1123
13.9 1132
13.92 1116
13.94 1130
13.96 1149
13.98 1146
14 1125
14.02 1152
14.04 1136
14.06 1136
14.08 1185
14.1 1181
14.12 1184
14.14 1209
14.16 1178
14.18 1204
14.2 1222
14.22 1260
14.24 1239
14.26 1203
14.28 1224
14.3 1284
14.32 1206
14.34 1316
14.36 1307
14.38 1313
14.4 1382
14.42 1282
14.44 1187
14.46 1171
14.48 1168
14.5 1188
14.52 1213
14.54 1231
14.56 1202
14.58 1227
14.6 1206
14.62 1231
14.64 1260
14.66 1241
14.68 1321
14.7 1222
14.72 1244
14.74 1276
14.76 1295
14.78 1328
14.8 1314
14.82 1306
14.84 1333
14.86 1367
14.88 1343
14.9 1313
14.92 1321
14.94 1269
14.96 1268
14.98 1243
15 1210
15.02 1208
15.04 1246
15.06 1267
15.08 1225
15.1 1280
15.12 1239
15.14 1302
15.16 1326
15.18 1328
15.2 1260
15.22 1312
15.24 1289
15.26 1374
15.28 1312
15.3 1277
15.32 1263
15.34 1415
15.36 1242
15.38 1370
15.4 1234
15.42 1275
15.44 1282
15.46 1279
15.48 1267
15.5 1336
15.52 1317
15.54 1232
15.56 1297
15.58 1320
15.6 1254
15.62 1275
15.64 1337
15.66 1381
15.68 1356
15.7 1329
15.72 1289
15.74 1294
15.76 1312
15.78 1298
15.8 1346
15.82 1348
15.84 1348
15.86 1370
15.88 1333
15.9 1324
15.92 1301
15.94 1354
15.96 1353
15.98 1379
16 1341
16.02 1407
16.04 1423
16.06 1357
16.08 1368
16.1 1366
16.12 1438
16.14 1499
16.16 1506
16.18 1479
16.2 1497
16.22 1485
16.24 1449
16.26 1470
16.28 1516
16.3 1506
16.32 1480
16.34 1485
16.36 1552
16.38 1378
16.4 1482
16.42 1402
16.44 1477
16.46 1492
16.48 1446
16.5 1431
16.52 1491
16.54 1478
16.56 1482
16.58 1509
16.6 1503
16.62 1468
16.64 1462
16.66 1498
16.68 1496
16.7 1538
16.72 1551
16.74 1427
16.76 1549
16.78 1624
16.8 1547
16.82 1666
16.84 1691
16.86 1747
16.88 1907
16.9 1942
16.92 2078
16.94 2310
16.96 2722
16.98 2917
17 3122
17.02 3101
17.04 2675
17.06 2283
17.08 1928
17.1 1725
17.12 1632
17.14 1603
17.16 1633
17.18 1676
17.2 1561
17.22 1596
17.24 1622
17.26 1691
17.28 1752
17.3 1647
17.32 1638
17.34 1652
17.36 1621
17.38 1528
17.4 1629
17.42 1656
17.44 1642
17.46 1610
17.48 1680
17.5 1614
17.52 1697
17.54 1598
17.56 1652
17.58 1646
17.6 1692
17.62 1670
17.64 1666
17.66 1693
17.68 1625
17.7 1670
17.72 1650
17.74 1741
17.76 1713
17.78 1653
17.8 1742
17.82 1700
17.84 1715
17.86 1728
17.88 1796
17.9 1694
17.92 1705
17.94 1749
17.96 1705
17.98 1733
18 1676
18.02 1744
18.04 1791
18.06 1754
18.08 1705
18.1 1668
18.12 1695
18.14 1813
18.16 1785
18.18 1750
18.2 1703
18.22 1725
18.24 1726
18.26 1791
18.28 1822
18.3 1719
18.32 1785
18.34 1781
18.36 1828
18.38 1845
18.4 1749
18.42 1817
18.44 1798
18.46 1746
18.48 1760
18.5 1775
18.52 1840
18.54 1759
18.56 1849
18.58 1770
18.6 1868
18.62 1880
18.64 1918
18.66 1902
18.68 1980
18.7 1950
18.72 1877
18.74 2033
18.76 2031
18.78 1989
18.8 1934
18.82 1982
18.84 1895
18.86 1985
18.88 1988
18.9 2049
18.92 1995
18.94 2007
18.96 2057
18.98 2034
19 2037
19.02 2130
19.04 2127
19.06 2152
19.08 2241
19.1 2333
19.12 2137
19.14 2098
19.16 2164
19.18 2084
19.2 2079
19.22 2054
19.24 2103
19.26 2028
19.28 2015
19.3 2014
19.32 2068
19.34 2110
19.36 2080
19.38 2115
19.4 2210
19.42 2214
19.44 2165
19.46 2234
19.48 2299
19.5 2247
19.52 2392
19.54 2360
19.56 2354
19.58 2308
19.6 2297
19.62 2140
19.64 2156
19.66 2110
19.68 2049
19.7 2116
19.72 2068
19.74 2171
19.76 2139
19.78 2144
19.8 2138
19.82 2251
19.84 2253
19.86 2153
19.88 2254
19.9 2272
19.92 2161
19.94 2193
19.96 2137
19.98 2152
20 2099