File: xrd-UiO-67/pxrddata/6-17.ASC
3 2170
3.02 1969
3.04 1779
3.06 1766
3.08 1727
3.1 1649
3.12 1602
3.14 1581
3.16 1493
3.18 1447
3.2 1527
3.22 1469
3.24 1467
3.26 1409
3.28 1366
3.3 1430
3.32 1301
3.34 1373
3.36 1429
3.38 1345
3.4 1408
3.42 1427
3.44 1384
3.46 1352
3.48 1361
3.5 1322
3.52 1295
3.54 1365
3.56 1330
3.58 1213
3.6 1261
3.62 1251
3.64 1244
3.66 1315
3.68 1221
3.7 1208
3.72 1197
3.74 1244
3.76 1126
3.78 1205
3.8 1220
3.82 1186
3.84 1154
3.86 1181
3.88 1192
3.9 1165
3.92 1146
3.94 1179
3.96 1183
3.98 1165
4 1104
4.02 1146
4.04 1094
4.06 1138
4.08 1112
4.1 1089
4.12 1074
4.14 1133
4.16 1084
4.18 1072
4.2 1056
4.22 1069
4.24 1097
4.26 1036
4.28 1076
4.3 1116
4.32 1084
4.34 989
4.36 1072
4.38 1036
4.4 1101
4.42 1029
4.44 1089
4.46 1047
4.48 1027
4.5 1017
4.52 1042
4.54 1010
4.56 1052
4.58 1015
4.6 976
4.62 992
4.64 999
4.66 1030
4.68 1014
4.7 1028
4.72 996
4.74 999
4.76 985
4.78 1009
4.8 951
4.82 1032
4.84 1014
4.86 965
4.88 1021
4.9 1044
4.92 1013
4.94 1036
4.96 999
4.98 956
5 964
5.02 1018
5.04 965
5.06 961
5.08 987
5.1 957
5.12 960
5.14 971
5.16 956
5.18 966
5.2 962
5.22 945
5.24 977
5.26 974
5.28 991
5.3 1039
5.32 944
5.34 997
5.36 981
5.38 929
5.4 988
5.42 980
5.44 936
5.46 960
5.48 959
5.5 982
5.52 949
5.54 985
5.56 965
5.58 960
5.6 952
5.62 978
5.64 966
5.66 1024
5.68 998
5.7 1015
5.72 976
5.74 1026
5.76 898
5.78 975
5.8 1047
5.82 1005
5.84 1006
5.86 981
5.88 983
5.9 982
5.92 999
5.94 995
5.96 1050
5.98 985
6 984
6.02 1010
6.04 975
6.06 965
6.08 1047
6.1 988
6.12 1013
6.14 978
6.16 977
6.18 965
6.2 974
6.22 953
6.24 972
6.26 983
6.28 1014
6.3 982
6.32 999
6.34 954
6.36 998
6.38 928
6.4 1012
6.42 984
6.44 995
6.46 1012
6.48 963
6.5 1017
6.52 1002
6.54 992
6.56 1020
6.58 1004
6.6 976
6.62 1005
6.64 995
6.66 1014
6.68 1093
6.7 1023
6.72 1001
6.74 1018
6.76 957
6.78 1029
6.8 989
6.82 997
6.84 986
6.86 1095
6.88 1029
6.9 1078
6.92 973
6.94 987
6.96 1044
6.98 1050
7 1029
7.02 985
7.04 1016
7.06 1042
7.08 1029
7.1 968
7.12 998
7.14 1031
7.16 981
7.18 1093
7.2 1021
7.22 981
7.24 1036
7.26 1072
7.28 1049
7.3 1053
7.32 1016
7.34 993
7.36 1002
7.38 1068
7.4 1033
7.42 1072
7.44 1025
7.46 1071
7.48 986
7.5 1080
7.52 1068
7.54 1064
7.56 1008
7.58 1012
7.6 1019
7.62 1013
7.64 1034
7.66 1023
7.68 1051
7.7 996
7.72 1038
7.74 1110
7.76 1119
7.78 1045
7.8 1061
7.82 1031
7.84 1018
7.86 1058
7.88 1000
7.9 1063
7.92 998
7.94 1079
7.96 1044
7.98 1032
8 1018
8.02 1023
8.04 979
8.06 1016
8.08 988
8.1 1069
8.12 1064
8.14 1062
8.16 1051
8.18 1058
8.2 1048
8.22 1065
8.24 1049
8.26 1057
8.28 1038
8.3 1023
8.32 1035
8.34 1054
8.36 1030
8.38 1059
8.4 1025
8.42 1038
8.44 1052
8.46 1031
8.48 1028
8.5 1054
8.52 1084
8.54 1093
8.56 1029
8.58 1027
8.6 1129
8.62 1071
8.64 1096
8.66 1045
8.68 1050
8.7 1056
8.72 1058
8.74 1066
8.76 1057
8.78 1073
8.8 1022
8.82 1053
8.84 1067
8.86 1106
8.88 1109
8.9 1095
8.92 1041
8.94 1096
8.96 1056
8.98 1026
9 1018
9.02 1080
9.04 1072
9.06 1096
9.08 1059
9.1 1055
9.12 1100
9.14 1072
9.16 1064
9.18 1058
9.2 1088
9.22 1074
9.24 1103
9.26 1186
9.28 1072
9.3 1107
9.32 1064
9.34 1082
9.36 1110
9.38 1035
9.4 1074
9.42 1080
9.44 1121
9.46 1143
9.48 1068
9.5 1076
9.52 1153
9.54 1077
9.56 1066
9.58 1098
9.6 1145
9.62 1083
9.64 1104
9.66 1140
9.68 1104
9.7 1055
9.72 1069
9.74 1053
9.76 1074
9.78 1100
9.8 1096
9.82 1124
9.84 1044
9.86 1146
9.88 1110
9.9 1137
9.92 1057
9.94 1070
9.96 1122
9.98 1142
10 1152
10.02 1115
10.04 1091
10.06 1066
10.08 1115
10.1 1121
10.12 1110
10.14 1138
10.16 1170
10.18 1088
10.2 1121
10.22 1088
10.24 1151
10.26 1078
10.28 1083
10.3 1106
10.32 1107
10.34 1096
10.36 1144
10.38 1111
10.4 1059
10.42 1043
10.44 1119
10.46 1110
10.48 1103
10.5 1145
10.52 1110
10.54 1125
10.56 1136
10.58 1101
10.6 1164
10.62 1136
10.64 1117
10.66 1090
10.68 1107
10.7 1124
10.72 1094
10.74 1126
10.76 1116
10.78 1169
10.8 1117
10.82 1125
10.84 1098
10.86 1111
10.88 1166
10.9 1136
10.92 1142
10.94 1161
10.96 1037
10.98 1102
11 1167
11.02 1151
11.04 1106
11.06 1073
11.08 1145
11.1 1157
11.12 1150
11.14 1134
11.16 1130
11.18 1105
11.2 1112
11.22 1051
11.24 1160
11.26 1149
11.28 1093
11.3 1119
11.32 1111
11.34 1101
11.36 1151
11.38 1087
11.4 1102
11.42 1246
11.44 1129
11.46 1114
11.48 1122
11.5 1105
11.52 1160
11.54 1177
11.56 1144
11.58 1157
11.6 1153
11.62 1163
11.64 1099
11.66 1097
11.68 1159
11.7 1151
11.72 1144
11.74 1120
11.76 1137
11.78 1165
11.8 1161
11.82 1155
11.84 1176
11.86 1157
11.88 1176
11.9 1122
11.92 1175
11.94 1153
11.96 1104
11.98 1128
12 1174
12.02 1146
12.04 1169
12.06 1109
12.08 1135
12.1 1160
12.12 1136
12.14 1164
12.16 1149
12.18 1161
12.2 1147
12.22 1115
12.24 1182
12.26 1145
12.28 1178
12.3 1192
12.32 1114
12.34 1134
12.36 1163
12.38 1136
12.4 1178
12.42 1196
12.44 1192
12.46 1195
12.48 1137
12.5 1156
12.52 1099
12.54 1113
12.56 1164
12.58 1195
12.6 1173
12.62 1206
12.64 1164
12.66 1204
12.68 1104
12.7 1139
12.72 1165
12.74 1176
12.76 1211
12.78 1207
12.8 1187
12.82 1142
12.84 1207
12.86 1175
12.88 1186
12.9 1231
12.92 1251
12.94 1175
12.96 1197
12.98 1206
13 1121
13.02 1208
13.04 1178
13.06 1174
13.08 1160
13.1 1219
13.12 1127
13.14 1180
13.16 1228
13.18 1250
13.2 1221
13.22 1278
13.24 1302
13.26 1252
13.28 1225
13.3 1223
13.32 1271
13.34 1247
13.36 1194
13.38 1256
13.4 1217
13.42 1225
13.44 1202
13.46 1186
13.48 1254
13.5 1222
13.52 1235
13.54 1267
13.56 1247
13.58 1234
13.6 1221
13.62 1168
13.64 1215
13.66 1230
13.68 1248
13.7 1236
13.72 1208
13.74 1219
13.76 1181
13.78 1184
13.8 1230
13.82 1247
13.84 1259
13.86 1216
13.88 1315
13.9 1227
13.92 1256
13.94 1286
13.96 1247
13.98 1282
14 1221
14.02 1225
14.04 1285
14.06 1321
14.08 1250
14.1 1294
14.12 1297
14.14 1265
14.16 1301
14.18 1280
14.2 1319
14.22 1293
14.24 1278
14.26 1364
14.28 1295
14.3 1259
14.32 1232
14.34 1256
14.36 1353
14.38 1307
14.4 1284
14.42 1372
14.44 1288
14.46 1331
14.48 1342
14.5 1279
14.52 1314
14.54 1369
14.56 1298
14.58 1358
14.6 1381
14.62 1314
14.64 1353
14.66 1326
14.68 1315
14.7 1361
14.72 1351
14.74 1360
14.76 1375
14.78 1405
14.8 1340
14.82 1329
14.84 1357
14.86 1433
14.88 1337
14.9 1372
14.92 1397
14.94 1325
14.96 1367
14.98 1453
15 1288
15.02 1388
15.04 1377
15.06 1355
15.08 1416
15.1 1429
15.12 1399
15.14 1467
15.16 1382
15.18 1373
15.2 1443
15.22 1419
15.24 1396
15.26 1384
15.28 1413
15.3 1380
15.32 1395
15.34 1412
15.36 1448
15.38 1454
15.4 1433
15.42 1377
15.44 1464
15.46 1489
15.48 1461
15.5 1530
15.52 1440
15.54 1404
15.56 1415
15.58 1472
15.6 1472
15.62 1536
15.64 1527
15.66 1477
15.68 1487
15.7 1498
15.72 1463
15.74 1485
15.76 1544
15.78 1464
15.8 1496
15.82 1482
15.84 1545
15.86 1494
15.88 1499
15.9 1487
15.92 1546
15.94 1500
15.96 1503
15.98 1498
16 1600
16.02 1509
16.04 1546
16.06 1589
16.08 1545
16.1 1508
16.12 1532
16.14 1468
16.16 1498
16.18 1515
16.2 1533
16.22 1588
16.24 1559
16.26 1635
16.28 1614
16.3 1595
16.32 1760
16.34 1526
16.36 1598
16.38 1663
16.4 1548
16.42 1678
16.44 1607
16.46 1736
16.48 1684
16.5 1618
16.52 1644
16.54 1724
16.56 1696
16.58 1743
16.6 1771
16.62 1768
16.64 1736
16.66 1758
16.68 1740
16.7 1830
16.72 1867
16.74 1922
16.76 2007
16.78 1970
16.8 2071
16.82 2141
16.84 2238
16.86 2442
16.88 2737
16.9 2858
16.92 3279
16.94 3883
16.96 3826
16.98 3799
17 3970
17.02 3967
17.04 3885
17.06 3437
17.08 2958
17.1 2533
17.12 2099
17.14 1999
17.16 1874
17.18 1851
17.2 1818
17.22 1843
17.24 1832
17.26 1890
17.28 1831
17.3 1840
17.32 1825
17.34 1861
17.36 1843
17.38 1911
17.4 1852
17.42 1861
17.44 1878
17.46 1893
17.48 1923
17.5 1822
17.52 1924
17.54 1899
17.56 1880
17.58 1919
17.6 1951
17.62 1978
17.64 1893
17.66 1929
17.68 1937
17.7 1912
17.72 1990
17.74 1945
17.76 2006
17.78 1982
17.8 1949
17.82 1953
17.84 1984
17.86 1973
17.88 1909
17.9 1963
17.92 2035
17.94 1987
17.96 2030
17.98 2029
18 2059
18.02 2070
18.04 1995
18.06 2019
18.08 1956
18.1 1968
18.12 2050
18.14 2060
18.16 1994
18.18 2001
18.2 2058
18.22 1992
18.24 2134
18.26 2079
18.28 2054
18.3 2160
18.32 2112
18.34 1995
18.36 2068
18.38 2053
18.4 2120
18.42 2093
18.44 2138
18.46 2076
18.48 2160
18.5 2165
18.52 2134
18.54 2166
18.56 2203
18.58 2157
18.6 2151
18.62 2131
18.64 2129
18.66 2208
18.68 2134
18.7 2152
18.72 2180
18.74 2193
18.76 2182
18.78 2288
18.8 2275
18.82 2272
18.84 2154
18.86 2253
18.88 2191
18.9 2298
18.92 2222
18.94 2216
18.96 2354
18.98 2218
19 2278
19.02 2233
19.04 2239
19.06 2264
19.08 2371
19.1 2284
19.12 2352
19.14 2272
19.16 2304
19.18 2279
19.2 2263
19.22 2287
19.24 2313
19.26 2386
19.28 2301
19.3 2308
19.32 2463
19.34 2377
19.36 2284
19.38 2320
19.4 2446
19.42 2346
19.44 2386
19.46 2438
19.48 2319
19.5 2365
19.52 2415
19.54 2359
19.56 2397
19.58 2456
19.6 2414
19.62 2451
19.64 2437
19.66 2378
19.68 2440
19.7 2433
19.72 2446
19.74 2429
19.76 2484
19.78 2421
19.8 2469
19.82 2503
19.84 2475
19.86 2487
19.88 2501
19.9 2546
19.92 2488
19.94 2519
19.96 2414
19.98 2495
20 2446