File: xrd-UiO-67/pxrddata/6-2.ASC
3 1653
3.02 1470
3.04 1335
3.06 1307
3.08 1225
3.1 1153
3.12 1093
3.14 1102
3.16 1087
3.18 1109
3.2 1066
3.22 1017
3.24 985
3.26 1008
3.28 952
3.3 1033
3.32 1020
3.34 930
3.36 959
3.38 935
3.4 893
3.42 954
3.44 913
3.46 963
3.48 905
3.5 911
3.52 893
3.54 902
3.56 899
3.58 842
3.6 834
3.62 851
3.64 841
3.66 863
3.68 832
3.7 803
3.72 828
3.74 768
3.76 844
3.78 806
3.8 803
3.82 756
3.84 772
3.86 764
3.88 816
3.9 767
3.92 740
3.94 732
3.96 765
3.98 756
4 806
4.02 723
4.04 743
4.06 727
4.08 719
4.1 704
4.12 781
4.14 658
4.16 687
4.18 703
4.2 722
4.22 677
4.24 663
4.26 684
4.28 678
4.3 690
4.32 700
4.34 633
4.36 650
4.38 635
4.4 648
4.42 724
4.44 647
4.46 638
4.48 651
4.5 599
4.52 636
4.54 599
4.56 582
4.58 632
4.6 619
4.62 626
4.64 593
4.66 566
4.68 588
4.7 608
4.72 574
4.74 625
4.76 595
4.78 627
4.8 581
4.82 601
4.84 628
4.86 589
4.88 541
4.9 585
4.92 598
4.94 591
4.96 551
4.98 568
5 545
5.02 591
5.04 549
5.06 571
5.08 560
5.1 590
5.12 596
5.14 554
5.16 599
5.18 565
5.2 604
5.22 563
5.24 612
5.26 573
5.28 563
5.3 576
5.32 598
5.34 606
5.36 618
5.38 612
5.4 637
5.42 631
5.44 681
5.46 607
5.48 623
5.5 657
5.52 663
5.54 680
5.56 691
5.58 736
5.6 662
5.62 730
5.64 740
5.66 741
5.68 848
5.7 829
5.72 870
5.74 900
5.76 979
5.78 1009
5.8 1059
5.82 1156
5.84 1206
5.86 1253
5.88 1351
5.9 1399
5.92 1559
5.94 1661
5.96 1717
5.98 1936
6 1948
6.02 2035
6.04 1638
6.06 1088
6.08 742
6.1 673
6.12 649
6.14 620
6.16 634
6.18 673
6.2 613
6.22 600
6.24 585
6.26 628
6.28 590
6.3 583
6.32 569
6.34 574
6.36 597
6.38 557
6.4 610
6.42 589
6.44 594
6.46 611
6.48 615
6.5 612
6.52 582
6.54 661
6.56 673
6.58 687
6.6 734
6.62 753
6.64 721
6.66 798
6.68 787
6.7 881
6.72 889
6.74 885
6.76 968
6.78 1032
6.8 1085
6.82 1161
6.84 1248
6.86 1269
6.88 1312
6.9 1307
6.92 1146
6.94 873
6.96 669
6.98 606
7 589
7.02 569
7.04 566
7.06 532
7.08 545
7.1 508
7.12 520
7.14 528
7.16 602
7.18 568
7.2 548
7.22 555
7.24 539
7.26 533
7.28 560
7.3 527
7.32 559
7.34 564
7.36 544
7.38 579
7.4 595
7.42 544
7.44 536
7.46 559
7.48 563
7.5 571
7.52 597
7.54 603
7.56 572
7.58 594
7.6 640
7.62 635
7.64 601
7.66 635
7.68 619
7.7 624
7.72 540
7.74 553
7.76 561
7.78 544
7.8 540
7.82 518
7.84 555
7.86 567
7.88 501
7.9 544
7.92 507
7.94 520
7.96 540
7.98 536
8 543
8.02 526
8.04 578
8.06 524
8.08 547
8.1 531
8.12 506
8.14 509
8.16 474
8.18 464
8.2 485
8.22 539
8.24 528
8.26 537
8.28 556
8.3 542
8.32 529
8.34 533
8.36 506
8.38 554
8.4 524
8.42 530
8.44 530
8.46 560
8.48 510
8.5 502
8.52 525
8.54 509
8.56 515
8.58 512
8.6 550
8.62 545
8.64 520
8.66 599
8.68 561
8.7 578
8.72 580
8.74 580
8.76 598
8.78 553
8.8 566
8.82 537
8.84 554
8.86 547
8.88 575
8.9 550
8.92 507
8.94 616
8.96 524
8.98 484
9 512
9.02 558
9.04 518
9.06 561
9.08 554
9.1 523
9.12 538
9.14 531
9.16 531
9.18 495
9.2 497
9.22 583
9.24 610
9.26 556
9.28 598
9.3 589
9.32 635
9.34 592
9.36 621
9.38 692
9.4 666
9.42 702
9.44 694
9.46 753
9.48 741
9.5 814
9.52 849
9.54 927
9.56 955
9.58 974
9.6 1051
9.62 1115
9.64 1020
9.66 926
9.68 677
9.7 586
9.72 578
9.74 514
9.76 584
9.78 515
9.8 567
9.82 576
9.84 548
9.86 555
9.88 535
9.9 533
9.92 526
9.94 499
9.96 527
9.98 553
10 522
10.02 515
10.04 530
10.06 509
10.08 515
10.1 503
10.12 511
10.14 555
10.16 511
10.18 527
10.2 525
10.22 519
10.24 579
10.26 530
10.28 500
10.3 512
10.32 529
10.34 550
10.36 508
10.38 499
10.4 499
10.42 517
10.44 520
10.46 521
10.48 539
10.5 511
10.52 518
10.54 515
10.56 530
10.58 553
10.6 523
10.62 565
10.64 516
10.66 489
10.68 476
10.7 574
10.72 599
10.74 567
10.76 527
10.78 538
10.8 520
10.82 528
10.84 547
10.86 547
10.88 545
10.9 565
10.92 597
10.94 597
10.96 651
10.98 605
11 679
11.02 699
11.04 708
11.06 735
11.08 772
11.1 766
11.12 826
11.14 893
11.16 903
11.18 1008
11.2 1072
11.22 1136
11.24 1061
11.26 973
11.28 758
11.3 629
11.32 560
11.34 545
11.36 577
11.38 580
11.4 556
11.42 622
11.44 594
11.46 563
11.48 589
11.5 603
11.52 611
11.54 639
11.56 679
11.58 634
11.6 642
11.62 705
11.64 734
11.66 769
11.68 778
11.7 790
11.72 797
11.74 806
11.76 688
11.78 631
11.8 561
11.82 523
11.84 573
11.86 544
11.88 532
11.9 532
11.92 543
11.94 561
11.96 535
11.98 534
12 537
12.02 519
12.04 493
12.06 566
12.08 535
12.1 524
12.12 566
12.14 519
12.16 536
12.18 569
12.2 603
12.22 552
12.24 535
12.26 540
12.28 553
12.3 556
12.32 554
12.34 590
12.36 570
12.38 559
12.4 537
12.42 550
12.44 525
12.46 579
12.48 533
12.5 561
12.52 583
12.54 594
12.56 604
12.58 547
12.6 540
12.62 541
12.64 578
12.66 506
12.68 553
12.7 610
12.72 579
12.74 570
12.76 552
12.78 544
12.8 550
12.82 559
12.84 528
12.86 540
12.88 520
12.9 563
12.92 551
12.94 555
12.96 543
12.98 519
13 557
13.02 588
13.04 566
13.06 603
13.08 573
13.1 533
13.12 575
13.14 542
13.16 533
13.18 532
13.2 579
13.22 594
13.24 570
13.26 600
13.28 593
13.3 566
13.32 588
13.34 641
13.36 643
13.38 622
13.4 592
13.42 668
13.44 621
13.46 639
13.48 692
13.5 649
13.52 688
13.54 626
13.56 600
13.58 614
13.6 596
13.62 601
13.64 535
13.66 556
13.68 574
13.7 553
13.72 620
13.74 596
13.76 638
13.78 569
13.8 576
13.82 559
13.84 580
13.86 639
13.88 607
13.9 615
13.92 591
13.94 614
13.96 597
13.98 550
14 586
14.02 582
14.04 557
14.06 611
14.08 605
14.1 608
14.12 615
14.14 618
14.16 620
14.18 606
14.2 617
14.22 597
14.24 600
14.26 566
14.28 574
14.3 644
14.32 617
14.34 605
14.36 594
14.38 624
14.4 641
14.42 623
14.44 612
14.46 638
14.48 676
14.5 648
14.52 608
14.54 656
14.56 644
14.58 655
14.6 644
14.62 717
14.64 721
14.66 673
14.68 675
14.7 692
14.72 695
14.74 666
14.76 606
14.78 643
14.8 630
14.82 670
14.84 633
14.86 629
14.88 661
14.9 689
14.92 704
14.94 654
14.96 660
14.98 646
15 697
15.02 703
15.04 702
15.06 687
15.08 694
15.1 659
15.12 681
15.14 634
15.16 646
15.18 640
15.2 668
15.22 671
15.24 625
15.26 648
15.28 693
15.3 695
15.32 690
15.34 661
15.36 652
15.38 684
15.4 660
15.42 702
15.44 637
15.46 651
15.48 664
15.5 647
15.52 663
15.54 667
15.56 704
15.58 712
15.6 681
15.62 685
15.64 645
15.66 652
15.68 709
15.7 726
15.72 676
15.74 725
15.76 697
15.78 697
15.8 695
15.82 687
15.84 722
15.86 706
15.88 734
15.9 763
15.92 704
15.94 753
15.96 728
15.98 725
16 691
16.02 679
16.04 691
16.06 740
16.08 699
16.1 728
16.12 751
16.14 704
16.16 707
16.18 731
16.2 721
16.22 734
16.24 774
16.26 759
16.28 740
16.3 716
16.32 698
16.34 776
16.36 791
16.38 764
16.4 760
16.42 770
16.44 759
16.46 850
16.48 738
16.5 770
16.52 753
16.54 781
16.56 763
16.58 810
16.6 812
16.62 772
16.64 812
16.66 833
16.68 798
16.7 820
16.72 851
16.74 807
16.76 831
16.78 818
16.8 854
16.82 857
16.84 866
16.86 831
16.88 771
16.9 815
16.92 832
16.94 824
16.96 889
16.98 864
17 844
17.02 890
17.04 866
17.06 827
17.08 817
17.1 846
17.12 831
17.14 915
17.16 913
17.18 826
17.2 879
17.22 827
17.24 904
17.26 865
17.28 868
17.3 863
17.32 950
17.34 968
17.36 925
17.38 963
17.4 961
17.42 981
17.44 1067
17.46 969
17.48 984
17.5 935
17.52 925
17.54 962
17.56 932
17.58 876
17.6 957
17.62 901
17.64 920
17.66 951
17.68 907
17.7 919
17.72 944
17.74 975
17.76 930
17.78 945
17.8 959
17.82 986
17.84 990
17.86 1001
17.88 987
17.9 953
17.92 977
17.94 995
17.96 988
17.98 970
18 975
18.02 972
18.04 943
18.06 1000
18.08 1049
18.1 1023
18.12 1004
18.14 1025
18.16 999
18.18 973
18.2 959
18.22 1025
18.24 1018
18.26 1079
18.28 1052
18.3 1026
18.32 1032
18.34 1026
18.36 1079
18.38 1033
18.4 1041
18.42 994
18.44 1073
18.46 1047
18.48 1102
18.5 1037
18.52 1127
18.54 1049
18.56 1086
18.58 1060
18.6 1074
18.62 1104
18.64 1041
18.66 1080
18.68 1063
18.7 1078
18.72 1115
18.74 1066
18.76 1086
18.78 1130
18.8 1127
18.82 1158
18.84 1182
18.86 1091
18.88 1127
18.9 1137
18.92 1147
18.94 1142
18.96 1074
18.98 1189
19 1139
19.02 1127
19.04 1151
19.06 1140
19.08 1183
19.1 1113
19.12 1158
19.14 1153
19.16 1206
19.18 1160
19.2 1184
19.22 1127
19.24 1133
19.26 1224
19.28 1241
19.3 1218
19.32 1198
19.34 1185
19.36 1188
19.38 1270
19.4 1228
19.42 1226
19.44 1202
19.46 1292
19.48 1259
19.5 1219
19.52 1195
19.54 1281
19.56 1257
19.58 1187
19.6 1292
19.62 1285
19.64 1299
19.66 1372
19.68 1379
19.7 1367
19.72 1359
19.74 1420
19.76 1446
19.78 1518
19.8 1507
19.82 1601
19.84 1697
19.86 1677
19.88 1605
19.9 1568
19.92 1479
19.94 1427
19.96 1447
19.98 1473
20 1560