File: xrd-UiO-67/pxrddata/6-20.ASC
3 2007
3.02 1919
3.04 1744
3.06 1618
3.08 1587
3.1 1477
3.12 1444
3.14 1374
3.16 1347
3.18 1389
3.2 1363
3.22 1325
3.24 1352
3.26 1316
3.28 1311
3.3 1319
3.32 1376
3.34 1308
3.36 1261
3.38 1301
3.4 1281
3.42 1249
3.44 1232
3.46 1239
3.48 1229
3.5 1217
3.52 1179
3.54 1164
3.56 1195
3.58 1189
3.6 1140
3.62 1132
3.64 1088
3.66 1080
3.68 1104
3.7 1083
3.72 1098
3.74 1083
3.76 1030
3.78 1068
3.8 1063
3.82 1048
3.84 1047
3.86 985
3.88 981
3.9 1029
3.92 1017
3.94 950
3.96 982
3.98 994
4 1032
4.02 945
4.04 958
4.06 947
4.08 985
4.1 960
4.12 868
4.14 956
4.16 882
4.18 895
4.2 890
4.22 942
4.24 901
4.26 923
4.28 914
4.3 925
4.32 891
4.34 884
4.36 890
4.38 846
4.4 883
4.42 898
4.44 846
4.46 886
4.48 832
4.5 852
4.52 852
4.54 880
4.56 823
4.58 818
4.6 864
4.62 861
4.64 798
4.66 835
4.68 848
4.7 866
4.72 804
4.74 809
4.76 818
4.78 894
4.8 798
4.82 808
4.84 802
4.86 809
4.88 829
4.9 761
4.92 791
4.94 775
4.96 804
4.98 776
5 790
5.02 772
5.04 809
5.06 779
5.08 809
5.1 831
5.12 778
5.14 761
5.16 800
5.18 783
5.2 755
5.22 775
5.24 779
5.26 786
5.28 761
5.3 830
5.32 826
5.34 768
5.36 767
5.38 803
5.4 782
5.42 774
5.44 798
5.46 798
5.48 803
5.5 826
5.52 803
5.54 772
5.56 801
5.58 779
5.6 812
5.62 807
5.64 739
5.66 733
5.68 741
5.7 805
5.72 761
5.74 780
5.76 712
5.78 799
5.8 745
5.82 733
5.84 743
5.86 789
5.88 813
5.9 731
5.92 833
5.94 786
5.96 803
5.98 778
6 748
6.02 816
6.04 791
6.06 820
6.08 838
6.1 846
6.12 774
6.14 769
6.16 779
6.18 815
6.2 777
6.22 772
6.24 751
6.26 809
6.28 771
6.3 809
6.32 782
6.34 809
6.36 760
6.38 838
6.4 847
6.42 840
6.44 837
6.46 806
6.48 824
6.5 809
6.52 757
6.54 802
6.56 753
6.58 781
6.6 811
6.62 808
6.64 765
6.66 853
6.68 808
6.7 825
6.72 758
6.74 781
6.76 821
6.78 764
6.8 774
6.82 761
6.84 813
6.86 850
6.88 783
6.9 849
6.92 836
6.94 864
6.96 808
6.98 794
7 798
7.02 839
7.04 831
7.06 819
7.08 772
7.1 778
7.12 812
7.14 794
7.16 822
7.18 836
7.2 789
7.22 845
7.24 858
7.26 802
7.28 845
7.3 792
7.32 837
7.34 830
7.36 820
7.38 838
7.4 868
7.42 796
7.44 860
7.46 826
7.48 845
7.5 831
7.52 878
7.54 819
7.56 814
7.58 845
7.6 860
7.62 793
7.64 845
7.66 771
7.68 803
7.7 839
7.72 794
7.74 814
7.76 803
7.78 814
7.8 827
7.82 817
7.84 802
7.86 812
7.88 845
7.9 844
7.92 810
7.94 862
7.96 834
7.98 807
8 805
8.02 835
8.04 876
8.06 839
8.08 814
8.1 873
8.12 807
8.14 860
8.16 865
8.18 830
8.2 832
8.22 839
8.24 853
8.26 863
8.28 819
8.3 857
8.32 797
8.34 875
8.36 848
8.38 821
8.4 906
8.42 820
8.44 738
8.46 823
8.48 813
8.5 850
8.52 837
8.54 820
8.56 847
8.58 808
8.6 842
8.62 836
8.64 833
8.66 855
8.68 780
8.7 813
8.72 841
8.74 851
8.76 826
8.78 807
8.8 860
8.82 851
8.84 833
8.86 897
8.88 863
8.9 834
8.92 876
8.94 885
8.96 836
8.98 872
9 889
9.02 882
9.04 862
9.06 886
9.08 857
9.1 909
9.12 852
9.14 846
9.16 837
9.18 845
9.2 889
9.22 835
9.24 825
9.26 854
9.28 818
9.3 842
9.32 819
9.34 829
9.36 822
9.38 890
9.4 838
9.42 874
9.44 854
9.46 809
9.48 824
9.5 853
9.52 883
9.54 801
9.56 816
9.58 861
9.6 838
9.62 876
9.64 867
9.66 820
9.68 834
9.7 878
9.72 791
9.74 856
9.76 871
9.78 835
9.8 846
9.82 841
9.84 867
9.86 814
9.88 786
9.9 871
9.92 895
9.94 875
9.96 853
9.98 801
10 834
10.02 879
10.04 827
10.06 918
10.08 878
10.1 873
10.12 846
10.14 913
10.16 885
10.18 824
10.2 854
10.22 828
10.24 830
10.26 807
10.28 821
10.3 855
10.32 858
10.34 879
10.36 815
10.38 826
10.4 865
10.42 922
10.44 863
10.46 831
10.48 891
10.5 903
10.52 889
10.54 854
10.56 892
10.58 781
10.6 838
10.62 881
10.64 860
10.66 888
10.68 867
10.7 914
10.72 835
10.74 852
10.76 875
10.78 906
10.8 891
10.82 910
10.84 923
10.86 858
10.88 879
10.9 896
10.92 839
10.94 889
10.96 860
10.98 824
11 887
11.02 855
11.04 927
11.06 846
11.08 850
11.1 879
11.12 900
11.14 867
11.16 880
11.18 889
11.2 891
11.22 861
11.24 899
11.26 928
11.28 888
11.3 888
11.32 868
11.34 867
11.36 889
11.38 868
11.4 871
11.42 845
11.44 894
11.46 827
11.48 849
11.5 910
11.52 847
11.54 913
11.56 876
11.58 886
11.6 883
11.62 888
11.64 950
11.66 918
11.68 903
11.7 893
11.72 880
11.74 940
11.76 914
11.78 943
11.8 897
11.82 845
11.84 932
11.86 909
11.88 910
11.9 870
11.92 857
11.94 879
11.96 852
11.98 928
12 893
12.02 935
12.04 855
12.06 929
12.08 1006
12.1 908
12.12 890
12.14 923
12.16 921
12.18 921
12.2 905
12.22 938
12.24 914
12.26 897
12.28 929
12.3 953
12.32 935
12.34 929
12.36 894
12.38 921
12.4 901
12.42 942
12.44 929
12.46 890
12.48 916
12.5 944
12.52 956
12.54 959
12.56 933
12.58 864
12.6 902
12.62 949
12.64 898
12.66 936
12.68 929
12.7 967
12.72 876
12.74 901
12.76 925
12.78 957
12.8 979
12.82 953
12.84 953
12.86 924
12.88 944
12.9 970
12.92 933
12.94 891
12.96 914
12.98 944
13 945
13.02 884
13.04 929
13.06 976
13.08 922
13.1 953
13.12 983
13.14 1006
13.16 926
13.18 955
13.2 973
13.22 993
13.24 1005
13.26 950
13.28 956
13.3 1050
13.32 1071
13.34 976
13.36 1011
13.38 970
13.4 1003
13.42 963
13.44 998
13.46 1025
13.48 1008
13.5 986
13.52 1006
13.54 983
13.56 958
13.58 1009
13.6 1015
13.62 1021
13.64 962
13.66 1053
13.68 949
13.7 977
13.72 964
13.74 935
13.76 996
13.78 992
13.8 1033
13.82 981
13.84 1024
13.86 1052
13.88 1092
13.9 1013
13.92 1049
13.94 1028
13.96 1041
13.98 1028
14 1083
14.02 998
14.04 1007
14.06 1091
14.08 1041
14.1 998
14.12 1039
14.14 1033
14.16 1017
14.18 1025
14.2 1014
14.22 1026
14.24 1070
14.26 1049
14.28 1032
14.3 1060
14.32 1081
14.34 1098
14.36 1078
14.38 1085
14.4 1035
14.42 1072
14.44 1072
14.46 1086
14.48 1099
14.5 1092
14.52 1055
14.54 1047
14.56 1131
14.58 1077
14.6 1081
14.62 1056
14.64 1070
14.66 1101
14.68 1120
14.7 1044
14.72 1151
14.74 1088
14.76 1180
14.78 1089
14.8 1179
14.82 1074
14.84 1160
14.86 1104
14.88 1066
14.9 1188
14.92 1151
14.94 1165
14.96 1101
14.98 1132
15 1081
15.02 1168
15.04 1110
15.06 1176
15.08 1123
15.1 1122
15.12 1134
15.14 1142
15.16 1134
15.18 1139
15.2 1136
15.22 1179
15.24 1162
15.26 1170
15.28 1174
15.3 1207
15.32 1156
15.34 1166
15.36 1221
15.38 1148
15.4 1222
15.42 1224
15.44 1214
15.46 1162
15.48 1216
15.5 1213
15.52 1233
15.54 1213
15.56 1210
15.58 1172
15.6 1187
15.62 1243
15.64 1230
15.66 1217
15.68 1225
15.7 1277
15.72 1237
15.74 1259
15.76 1214
15.78 1221
15.8 1297
15.82 1256
15.84 1210
15.86 1276
15.88 1239
15.9 1198
15.92 1287
15.94 1337
15.96 1251
15.98 1278
16 1306
16.02 1274
16.04 1258
16.06 1290
16.08 1257
16.1 1334
16.12 1298
16.14 1214
16.16 1299
16.18 1340
16.2 1299
16.22 1357
16.24 1333
16.26 1299
16.28 1293
16.3 1330
16.32 1304
16.34 1386
16.36 1293
16.38 1410
16.4 1340
16.42 1338
16.44 1398
16.46 1363
16.48 1357
16.5 1363
16.52 1448
16.54 1352
16.56 1393
16.58 1401
16.6 1376
16.62 1432
16.64 1480
16.66 1462
16.68 1455
16.7 1437
16.72 1539
16.74 1507
16.76 1583
16.78 1523
16.8 1583
16.82 1638
16.84 1690
16.86 1703
16.88 1768
16.9 1853
16.92 1945
16.94 2204
16.96 2270
16.98 2495
17 2820
17.02 3182
17.04 3514
17.06 3792
17.08 3922
17.1 3930
17.12 3598
17.14 3081
17.16 2464
17.18 1998
17.2 1839
17.22 1687
17.24 1691
17.26 1614
17.28 1633
17.3 1640
17.32 1673
17.34 1623
17.36 1720
17.38 1687
17.4 1712
17.42 1751
17.44 1746
17.46 1683
17.48 1674
17.5 1638
17.52 1648
17.54 1695
17.56 1727
17.58 1651
17.6 1747
17.62 1719
17.64 1649
17.66 1690
17.68 1694
17.7 1635
17.72 1714
17.74 1762
17.76 1653
17.78 1689
17.8 1670
17.82 1686
17.84 1731
17.86 1809
17.88 1684
17.9 1723
17.92 1734
17.94 1770
17.96 1739
17.98 1813
18 1708
18.02 1788
18.04 1779
18.06 1771
18.08 1822
18.1 1883
18.12 1793
18.14 1835
18.16 1852
18.18 1775
18.2 1804
18.22 1785
18.24 1894
18.26 1886
18.28 1888
18.3 1812
18.32 1883
18.34 1925
18.36 1853
18.38 1902
18.4 1867
18.42 1929
18.44 1923
18.46 1981
18.48 1906
18.5 1899
18.52 1931
18.54 1946
18.56 1973
18.58 2015
18.6 2038
18.62 1905
18.64 1983
18.66 2114
18.68 2004
18.7 1976
18.72 2062
18.74 2029
18.76 2066
18.78 2018
18.8 1963
18.82 2064
18.84 2041
18.86 2001
18.88 2121
18.9 2022
18.92 2095
18.94 2128
18.96 2103
18.98 2052
19 2113
19.02 2120
19.04 2175
19.06 2210
19.08 2167
19.1 2142
19.12 2115
19.14 2174
19.16 2193
19.18 2177
19.2 2168
19.22 2267
19.24 2200
19.26 2155
19.28 2193
19.3 2217
19.32 2258
19.34 2189
19.36 2245
19.38 2224
19.4 2149
19.42 2261
19.44 2245
19.46 2310
19.48 2244
19.5 2276
19.52 2250
19.54 2265
19.56 2353
19.58 2364
19.6 2296
19.62 2390
19.64 2255
19.66 2386
19.68 2378
19.7 2367
19.72 2436
19.74 2396
19.76 2400
19.78 2431
19.8 2447
19.82 2419
19.84 2325
19.86 2366
19.88 2450
19.9 2383
19.92 2402
19.94 2416
19.96 2400
19.98 2474
20 2445