File: xrd-UiO-67/pxrddata/6-3.ASC
3 2236
3.02 2125
3.04 2050
3.06 1842
3.08 1785
3.1 1745
3.12 1640
3.14 1617
3.16 1609
3.18 1551
3.2 1598
3.22 1538
3.24 1523
3.26 1472
3.28 1540
3.3 1551
3.32 1501
3.34 1503
3.36 1467
3.38 1359
3.4 1441
3.42 1411
3.44 1393
3.46 1435
3.48 1371
3.5 1358
3.52 1381
3.54 1321
3.56 1332
3.58 1264
3.6 1343
3.62 1284
3.64 1231
3.66 1242
3.68 1190
3.7 1229
3.72 1186
3.74 1184
3.76 1156
3.78 1164
3.8 1170
3.82 1168
3.84 1150
3.86 1128
3.88 1192
3.9 1150
3.92 1136
3.94 1093
3.96 1118
3.98 1104
4 1175
4.02 1116
4.04 1096
4.06 1064
4.08 1074
4.1 1033
4.12 1034
4.14 1073
4.16 1065
4.18 1044
4.2 1073
4.22 999
4.24 979
4.26 1024
4.28 987
4.3 968
4.32 990
4.34 959
4.36 1008
4.38 1019
4.4 993
4.42 967
4.44 958
4.46 934
4.48 950
4.5 986
4.52 994
4.54 923
4.56 931
4.58 946
4.6 963
4.62 926
4.64 1021
4.66 939
4.68 935
4.7 965
4.72 931
4.74 1018
4.76 970
4.78 927
4.8 898
4.82 956
4.84 915
4.86 987
4.88 939
4.9 984
4.92 1010
4.94 1025
4.96 1021
4.98 1030
5 994
5.02 1070
5.04 1093
5.06 1082
5.08 1053
5.1 1122
5.12 1116
5.14 1135
5.16 1165
5.18 1193
5.2 1248
5.22 1264
5.24 1312
5.26 1292
5.28 1282
5.3 1375
5.32 1449
5.34 1464
5.36 1448
5.38 1508
5.4 1598
5.42 1639
5.44 1688
5.46 1851
5.48 1956
5.5 2047
5.52 2104
5.54 2224
5.56 2461
5.58 2615
5.6 2874
5.62 2992
5.64 3343
5.66 3649
5.68 3881
5.7 4614
5.72 5434
5.74 6591
5.76 8124
5.78 8375
5.8 6506
5.82 3532
5.84 1922
5.86 1397
5.88 1216
5.9 1237
5.92 1178
5.94 1189
5.96 1124
5.98 1108
6 1114
6.02 1043
6.04 1107
6.06 1103
6.08 1039
6.1 1066
6.12 1066
6.14 1080
6.16 1116
6.18 1170
6.2 1121
6.22 1189
6.24 1201
6.26 1241
6.28 1292
6.3 1289
6.32 1347
6.34 1422
6.36 1483
6.38 1448
6.4 1616
6.42 1692
6.44 1713
6.46 1830
6.48 1997
6.5 2137
6.52 2150
6.54 2361
6.56 2602
6.58 2980
6.6 3411
6.62 4066
6.64 4918
6.66 5212
6.68 4083
6.7 2438
6.72 1519
6.74 1209
6.76 1084
6.78 1036
6.8 1000
6.82 1005
6.84 1001
6.86 1007
6.88 920
6.9 1022
6.92 961
6.94 944
6.96 959
6.98 970
7 1054
7.02 1043
7.04 976
7.06 1004
7.08 1038
7.1 1034
7.12 1010
7.14 1071
7.16 1067
7.18 1058
7.2 1146
7.22 1115
7.24 1253
7.26 1243
7.28 1290
7.3 1342
7.32 1426
7.34 1487
7.36 1662
7.38 1800
7.4 1973
7.42 2323
7.44 2702
7.46 2285
7.48 1848
7.5 1277
7.52 1020
7.54 973
7.56 970
7.58 938
7.6 913
7.62 894
7.64 913
7.66 869
7.68 909
7.7 922
7.72 883
7.74 903
7.76 978
7.78 854
7.8 898
7.82 906
7.84 854
7.86 908
7.88 921
7.9 879
7.92 958
7.94 872
7.96 952
7.98 891
8 882
8.02 883
8.04 928
8.06 927
8.08 880
8.1 876
8.12 878
8.14 866
8.16 920
8.18 928
8.2 924
8.22 962
8.24 882
8.26 912
8.28 911
8.3 976
8.32 981
8.34 1012
8.36 998
8.38 1027
8.4 1050
8.42 1016
8.44 1098
8.46 1141
8.48 1181
8.5 1247
8.52 1326
8.54 1340
8.56 1620
8.58 1593
8.6 1556
8.62 1337
8.64 1078
8.66 979
8.68 929
8.7 860
8.72 888
8.74 948
8.76 868
8.78 955
8.8 896
8.82 921
8.84 920
8.86 890
8.88 965
8.9 993
8.92 965
8.94 942
8.96 945
8.98 1006
9 1045
9.02 1025
9.04 1108
9.06 1128
9.08 1112
9.1 1162
9.12 1223
9.14 1253
9.16 1315
9.18 1363
9.2 1395
9.22 1511
9.24 1673
9.26 1763
9.28 1894
9.3 2117
9.32 2515
9.34 3035
9.36 3722
9.38 4026
9.4 3376
9.42 2317
9.44 1508
9.46 1164
9.48 979
9.5 979
9.52 958
9.54 899
9.56 923
9.58 920
9.6 937
9.62 910
9.64 869
9.66 982
9.68 901
9.7 894
9.72 891
9.74 887
9.76 895
9.78 844
9.8 871
9.82 931
9.84 917
9.86 885
9.88 906
9.9 962
9.92 869
9.94 911
9.96 895
9.98 864
10 884
10.02 889
10.04 894
10.06 921
10.08 891
10.1 909
10.12 923
10.14 897
10.16 885
10.18 819
10.2 904
10.22 907
10.24 910
10.26 885
10.28 928
10.3 877
10.32 933
10.34 954
10.36 894
10.38 929
10.4 907
10.42 927
10.44 920
10.46 899
10.48 936
10.5 928
10.52 946
10.54 936
10.56 971
10.58 998
10.6 937
10.62 992
10.64 1033
10.66 1033
10.68 1026
10.7 1062
10.72 1120
10.74 1113
10.76 1179
10.78 1282
10.8 1311
10.82 1536
10.84 1482
10.86 1591
10.88 1710
10.9 1911
10.92 2166
10.94 2594
10.96 3042
10.98 3606
11 3633
11.02 2937
11.04 2013
11.06 1495
11.08 1206
11.1 1039
11.12 1108
11.14 1039
11.16 1005
11.18 1010
11.2 1102
11.22 1046
11.24 1025
11.26 1112
11.28 1116
11.3 1196
11.32 1171
11.34 1208
11.36 1328
11.38 1368
11.4 1461
11.42 1604
11.44 1841
11.46 2207
11.48 2294
11.5 2038
11.52 1580
11.54 1227
11.56 1069
11.58 983
11.6 958
11.62 933
11.64 938
11.66 951
11.68 973
11.7 973
11.72 938
11.74 877
11.76 971
11.78 939
11.8 897
11.82 949
11.84 1006
11.86 941
11.88 967
11.9 966
11.92 952
11.94 1021
11.96 1000
11.98 980
12 1027
12.02 966
12.04 1039
12.06 1160
12.08 1117
12.1 1175
12.12 1191
12.14 1123
12.16 1095
12.18 1017
12.2 944
12.22 975
12.24 924
12.26 957
12.28 919
12.3 977
12.32 924
12.34 936
12.36 1004
12.38 963
12.4 916
12.42 979
12.44 904
12.46 969
12.48 907
12.5 961
12.52 977
12.54 978
12.56 948
12.58 916
12.6 964
12.62 933
12.64 889
12.66 939
12.68 997
12.7 935
12.72 1006
12.74 914
12.76 942
12.78 935
12.8 978
12.82 953
12.84 961
12.86 1006
12.88 954
12.9 975
12.92 1015
12.94 990
12.96 945
12.98 986
13 1025
13.02 994
13.04 965
13.06 1016
13.08 1076
13.1 1088
13.12 1065
13.14 1134
13.16 1192
13.18 1150
13.2 1289
13.22 1331
13.24 1459
13.26 1403
13.28 1318
13.3 1255
13.32 1064
13.34 1050
13.36 1003
13.38 976
13.4 958
13.42 1035
13.44 1032
13.46 991
13.48 989
13.5 1004
13.52 1002
13.54 985
13.56 995
13.58 1015
13.6 1055
13.62 1019
13.64 1001
13.66 1000
13.68 1022
13.7 1054
13.72 1052
13.74 1028
13.76 1015
13.78 993
13.8 1006
13.82 1006
13.84 1006
13.86 1014
13.88 1069
13.9 1008
13.92 1075
13.94 1077
13.96 1036
13.98 1086
14 1043
14.02 1097
14.04 1068
14.06 1072
14.08 1089
14.1 1088
14.12 1101
14.14 1133
14.16 1158
14.18 1221
14.2 1185
14.22 1232
14.24 1225
14.26 1212
14.28 1174
14.3 1191
14.32 1157
14.34 1145
14.36 1242
14.38 1244
14.4 1411
14.42 1397
14.44 1498
14.46 1480
14.48 1373
14.5 1260
14.52 1144
14.54 1117
14.56 1161
14.58 1139
14.6 1122
14.62 1127
14.64 1135
14.66 1176
14.68 1133
14.7 1220
14.72 1124
14.74 1172
14.76 1150
14.78 1257
14.8 1247
14.82 1269
14.84 1274
14.86 1287
14.88 1182
14.9 1227
14.92 1167
14.94 1166
14.96 1154
14.98 1226
15 1183
15.02 1129
15.04 1162
15.06 1222
15.08 1166
15.1 1191
15.12 1178
15.14 1191
15.16 1210
15.18 1161
15.2 1241
15.22 1174
15.24 1192
15.26 1233
15.28 1228
15.3 1197
15.32 1209
15.34 1284
15.36 1246
15.38 1257
15.4 1170
15.42 1209
15.44 1266
15.46 1240
15.48 1244
15.5 1264
15.52 1234
15.54 1196
15.56 1250
15.58 1245
15.6 1260
15.62 1281
15.64 1222
15.66 1246
15.68 1255
15.7 1253
15.72 1249
15.74 1287
15.76 1306
15.78 1294
15.8 1283
15.82 1280
15.84 1296
15.86 1263
15.88 1296
15.9 1275
15.92 1327
15.94 1328
15.96 1254
15.98 1299
16 1317
16.02 1350
16.04 1305
16.06 1333
16.08 1338
16.1 1283
16.12 1360
16.14 1346
16.16 1341
16.18 1281
16.2 1349
16.22 1396
16.24 1389
16.26 1436
16.28 1316
16.3 1348
16.32 1446
16.34 1370
16.36 1407
16.38 1410
16.4 1408
16.42 1417
16.44 1473
16.46 1404
16.48 1450
16.5 1475
16.52 1407
16.54 1416
16.56 1456
16.58 1430
16.6 1437
16.62 1452
16.64 1464
16.66 1424
16.68 1499
16.7 1470
16.72 1422
16.74 1492
16.76 1504
16.78 1465
16.8 1499
16.82 1522
16.84 1530
16.86 1523
16.88 1504
16.9 1562
16.92 1580
16.94 1605
16.96 1568
16.98 1553
17 1600
17.02 1620
17.04 1665
17.06 1707
17.08 1661
17.1 1757
17.12 1795
17.14 1808
17.16 1811
17.18 1986
17.2 2085
17.22 2084
17.24 1915
17.26 1773
17.28 1677
17.3 1643
17.32 1684
17.34 1683
17.36 1616
17.38 1678
17.4 1658
17.42 1699
17.44 1568
17.46 1619
17.48 1599
17.5 1695
17.52 1712
17.54 1681
17.56 1727
17.58 1672
17.6 1598
17.62 1757
17.64 1724
17.66 1687
17.68 1764
17.7 1726
17.72 1712
17.74 1680
17.76 1706
17.78 1748
17.8 1778
17.82 1742
17.84 1754
17.86 1653
17.88 1676
17.9 1845
17.92 1858
17.94 1782
17.96 1767
17.98 1778
18 1766
18.02 1758
18.04 1769
18.06 1744
18.08 1762
18.1 1791
18.12 1784
18.14 1757
18.16 1856
18.18 1820
18.2 1835
18.22 1797
18.24 1842
18.26 1832
18.28 1828
18.3 1841
18.32 1889
18.34 1882
18.36 1866
18.38 1841
18.4 1883
18.42 1811
18.44 1831
18.46 1857
18.48 1898
18.5 1850
18.52 1841
18.54 1923
18.56 1921
18.58 1889
18.6 1874
18.62 1879
18.64 1984
18.66 1952
18.68 1974
18.7 2048
18.72 1939
18.74 1993
18.76 1965
18.78 1971
18.8 1979
18.82 1987
18.84 2020
18.86 1886
18.88 1961
18.9 1975
18.92 1979
18.94 2024
18.96 2105
18.98 2039
19 2074
19.02 2010
19.04 1993
19.06 2093
19.08 2097
19.1 2031
19.12 2036
19.14 2113
19.16 2138
19.18 2037
19.2 2011
19.22 2098
19.24 2051
19.26 2150
19.28 2076
19.3 2093
19.32 2002
19.34 2108
19.36 2153
19.38 2147
19.4 2102
19.42 2165
19.44 2235
19.46 2239
19.48 2188
19.5 2318
19.52 2430
19.54 2497
19.56 2735
19.58 2960
19.6 3271
19.62 3308
19.64 3105
19.66 2893
19.68 2607
19.7 2390
19.72 2454
19.74 2440
19.76 2439
19.78 2488
19.8 2538
19.82 2892
19.84 3061
19.86 3415
19.88 3775
19.9 3900
19.92 3633
19.94 3245
19.96 2966
19.98 2533
20 2455