File: xrd-UiO-67/pxrddata/6-5.ASC
3 2473
3.02 2244
3.04 2157
3.06 2104
3.08 1952
3.1 1860
3.12 1728
3.14 1770
3.16 1815
3.18 1707
3.2 1730
3.22 1740
3.24 1702
3.26 1684
3.28 1672
3.3 1648
3.32 1602
3.34 1611
3.36 1562
3.38 1435
3.4 1548
3.42 1474
3.44 1463
3.46 1495
3.48 1462
3.5 1439
3.52 1475
3.54 1423
3.56 1487
3.58 1400
3.6 1404
3.62 1389
3.64 1403
3.66 1448
3.68 1403
3.7 1355
3.72 1304
3.74 1403
3.76 1327
3.78 1318
3.8 1262
3.82 1274
3.84 1259
3.86 1220
3.88 1232
3.9 1257
3.92 1248
3.94 1257
3.96 1247
3.98 1237
4 1179
4.02 1237
4.04 1159
4.06 1271
4.08 1225
4.1 1198
4.12 1152
4.14 1121
4.16 1144
4.18 1183
4.2 1217
4.22 1192
4.24 1122
4.26 1125
4.28 1117
4.3 1160
4.32 1171
4.34 1114
4.36 1101
4.38 1098
4.4 1096
4.42 1150
4.44 1131
4.46 1132
4.48 1121
4.5 1156
4.52 1115
4.54 1097
4.56 1064
4.58 1089
4.6 1078
4.62 1054
4.64 1071
4.66 1053
4.68 1113
4.7 1077
4.72 1032
4.74 1025
4.76 1084
4.78 1043
4.8 1056
4.82 1056
4.84 1064
4.86 988
4.88 1015
4.9 1038
4.92 1018
4.94 1086
4.96 1072
4.98 1028
5 1026
5.02 1030
5.04 1035
5.06 976
5.08 1003
5.1 1018
5.12 968
5.14 1012
5.16 1038
5.18 1017
5.2 956
5.22 1036
5.24 1071
5.26 1016
5.28 1018
5.3 1025
5.32 1068
5.34 1037
5.36 1015
5.38 982
5.4 1030
5.42 995
5.44 1052
5.46 1001
5.48 1065
5.5 1019
5.52 1023
5.54 991
5.56 987
5.58 972
5.6 1020
5.62 1002
5.64 989
5.66 1004
5.68 1041
5.7 1081
5.72 1051
5.74 1100
5.76 1108
5.78 1035
5.8 1082
5.82 1013
5.84 1012
5.86 995
5.88 1077
5.9 1064
5.92 1076
5.94 1012
5.96 1028
5.98 1061
6 1016
6.02 989
6.04 1009
6.06 1087
6.08 1022
6.1 1044
6.12 1048
6.14 1056
6.16 955
6.18 1009
6.2 1044
6.22 1023
6.24 1090
6.26 980
6.28 1057
6.3 997
6.32 1052
6.34 1060
6.36 989
6.38 1060
6.4 1003
6.42 1062
6.44 1022
6.46 1000
6.48 1025
6.5 1035
6.52 1071
6.54 1024
6.56 1054
6.58 1035
6.6 1015
6.62 998
6.64 972
6.66 971
6.68 1060
6.7 1036
6.72 1069
6.74 982
6.76 1039
6.78 1051
6.8 1010
6.82 1050
6.84 981
6.86 1016
6.88 1046
6.9 1031
6.92 976
6.94 1045
6.96 1031
6.98 994
7 1029
7.02 1008
7.04 990
7.06 1038
7.08 1027
7.1 1012
7.12 1031
7.14 1002
7.16 1031
7.18 1054
7.2 998
7.22 959
7.24 964
7.26 1069
7.28 977
7.3 1005
7.32 1013
7.34 1020
7.36 1021
7.38 1034
7.4 1053
7.42 1030
7.44 1028
7.46 1020
7.48 1010
7.5 984
7.52 1008
7.54 1038
7.56 1038
7.58 988
7.6 988
7.62 1037
7.64 1011
7.66 998
7.68 1016
7.7 993
7.72 984
7.74 1042
7.76 989
7.78 1034
7.8 1048
7.82 1034
7.84 978
7.86 1029
7.88 1029
7.9 1012
7.92 994
7.94 1010
7.96 1027
7.98 979
8 1077
8.02 1030
8.04 988
8.06 1006
8.08 1017
8.1 1023
8.12 993
8.14 997
8.16 1013
8.18 989
8.2 1010
8.22 1026
8.24 1036
8.26 981
8.28 988
8.3 997
8.32 1015
8.34 974
8.36 978
8.38 1000
8.4 995
8.42 1030
8.44 1008
8.46 982
8.48 984
8.5 1028
8.52 923
8.54 960
8.56 975
8.58 1009
8.6 1002
8.62 1038
8.64 1011
8.66 979
8.68 975
8.7 943
8.72 968
8.74 1001
8.76 1040
8.78 1000
8.8 1020
8.82 993
8.84 997
8.86 973
8.88 1024
8.9 1013
8.92 987
8.94 983
8.96 947
8.98 929
9 960
9.02 994
9.04 989
9.06 945
9.08 978
9.1 975
9.12 986
9.14 990
9.16 978
9.18 994
9.2 960
9.22 1003
9.24 1054
9.26 1021
9.28 1024
9.3 954
9.32 990
9.34 981
9.36 1040
9.38 956
9.4 982
9.42 997
9.44 995
9.46 934
9.48 947
9.5 996
9.52 1019
9.54 975
9.56 1040
9.58 975
9.6 980
9.62 957
9.64 953
9.66 982
9.68 1006
9.7 982
9.72 935
9.74 936
9.76 1008
9.78 1055
9.8 947
9.82 1024
9.84 985
9.86 986
9.88 943
9.9 955
9.92 1008
9.94 897
9.96 985
9.98 965
10 955
10.02 1024
10.04 963
10.06 919
10.08 948
10.1 975
10.12 923
10.14 968
10.16 941
10.18 945
10.2 975
10.22 949
10.24 901
10.26 904
10.28 954
10.3 975
10.32 924
10.34 974
10.36 975
10.38 961
10.4 961
10.42 972
10.44 962
10.46 946
10.48 946
10.5 949
10.52 934
10.54 939
10.56 904
10.58 974
10.6 997
10.62 951
10.64 964
10.66 959
10.68 977
10.7 976
10.72 953
10.74 959
10.76 978
10.78 993
10.8 911
10.82 1019
10.84 964
10.86 932
10.88 966
10.9 951
10.92 981
10.94 962
10.96 959
10.98 957
11 964
11.02 961
11.04 1027
11.06 971
11.08 978
11.1 987
11.12 928
11.14 953
11.16 911
11.18 969
11.2 983
11.22 996
11.24 997
11.26 953
11.28 959
11.3 942
11.32 984
11.34 954
11.36 986
11.38 1026
11.4 966
11.42 955
11.44 936
11.46 965
11.48 930
11.5 942
11.52 987
11.54 1007
11.56 968
11.58 1032
11.6 968
11.62 952
11.64 958
11.66 974
11.68 976
11.7 955
11.72 970
11.74 976
11.76 1023
11.78 937
11.8 958
11.82 1007
11.84 1040
11.86 966
11.88 996
11.9 997
11.92 1105
11.94 1016
11.96 1018
11.98 956
12 982
12.02 975
12.04 1032
12.06 997
12.08 960
12.1 982
12.12 1013
12.14 995
12.16 936
12.18 946
12.2 988
12.22 1023
12.24 932
12.26 982
12.28 995
12.3 983
12.32 1042
12.34 996
12.36 979
12.38 931
12.4 955
12.42 965
12.44 998
12.46 971
12.48 1001
12.5 989
12.52 974
12.54 1006
12.56 920
12.58 1001
12.6 986
12.62 955
12.64 997
12.66 1011
12.68 1036
12.7 1007
12.72 958
12.74 1026
12.76 990
12.78 1013
12.8 1045
12.82 1012
12.84 961
12.86 985
12.88 1010
12.9 1006
12.92 1058
12.94 1003
12.96 1011
12.98 1014
13 1016
13.02 1029
13.04 1025
13.06 1025
13.08 1054
13.1 1013
13.12 1052
13.14 1055
13.16 1068
13.18 1060
13.2 1052
13.22 1038
13.24 1106
13.26 1047
13.28 1113
13.3 1040
13.32 1063
13.34 1029
13.36 1009
13.38 1034
13.4 1048
13.42 1040
13.44 1144
13.46 967
13.48 999
13.5 1070
13.52 1106
13.54 1070
13.56 1042
13.58 1033
13.6 1073
13.62 1071
13.64 1014
13.66 1075
13.68 1128
13.7 1058
13.72 1088
13.74 1060
13.76 1058
13.78 1082
13.8 1084
13.82 1116
13.84 1046
13.86 1061
13.88 1133
13.9 1031
13.92 1111
13.94 1116
13.96 1145
13.98 1099
14 1007
14.02 1118
14.04 1115
14.06 1108
14.08 1118
14.1 1108
14.12 1139
14.14 1073
14.16 1139
14.18 1130
14.2 1087
14.22 1092
14.24 1053
14.26 1108
14.28 1110
14.3 1094
14.32 1077
14.34 1099
14.36 1175
14.38 1184
14.4 1193
14.42 1150
14.44 1121
14.46 1069
14.48 1161
14.5 1100
14.52 1124
14.54 1132
14.56 1163
14.58 1151
14.6 1195
14.62 1117
14.64 1144
14.66 1162
14.68 1206
14.7 1220
14.72 1230
14.74 1134
14.76 1208
14.78 1190
14.8 1152
14.82 1209
14.84 1166
14.86 1250
14.88 1183
14.9 1196
14.92 1215
14.94 1218
14.96 1267
14.98 1240
15 1236
15.02 1234
15.04 1227
15.06 1194
15.08 1220
15.1 1251
15.12 1256
15.14 1228
15.16 1263
15.18 1260
15.2 1241
15.22 1240
15.24 1201
15.26 1233
15.28 1272
15.3 1311
15.32 1350
15.34 1340
15.36 1275
15.38 1268
15.4 1301
15.42 1187
15.44 1284
15.46 1223
15.48 1182
15.5 1304
15.52 1287
15.54 1215
15.56 1286
15.58 1304
15.6 1294
15.62 1348
15.64 1326
15.66 1336
15.68 1252
15.7 1269
15.72 1294
15.74 1300
15.76 1290
15.78 1295
15.8 1266
15.82 1335
15.84 1268
15.86 1279
15.88 1311
15.9 1342
15.92 1360
15.94 1321
15.96 1386
15.98 1352
16 1350
16.02 1369
16.04 1407
16.06 1321
16.08 1360
16.1 1408
16.12 1395
16.14 1393
16.16 1363
16.18 1395
16.2 1435
16.22 1341
16.24 1386
16.26 1373
16.28 1385
16.3 1448
16.32 1321
16.34 1455
16.36 1462
16.38 1471
16.4 1405
16.42 1502
16.44 1433
16.46 1442
16.48 1520
16.5 1449
16.52 1493
16.54 1421
16.56 1495
16.58 1536
16.6 1451
16.62 1530
16.64 1557
16.66 1604
16.68 1543
16.7 1677
16.72 1624
16.74 1645
16.76 1761
16.78 1814
16.8 1836
16.82 1917
16.84 2082
16.86 2127
16.88 2274
16.9 2598
16.92 2929
16.94 3383
16.96 3925
16.98 4151
17 4106
17.02 4129
17.04 3486
17.06 2898
17.08 2410
17.1 1981
17.12 1806
17.14 1670
17.16 1681
17.18 1615
17.2 1601
17.22 1620
17.24 1665
17.26 1596
17.28 1558
17.3 1624
17.32 1623
17.34 1595
17.36 1624
17.38 1621
17.4 1644
17.42 1620
17.44 1653
17.46 1600
17.48 1692
17.5 1610
17.52 1671
17.54 1645
17.56 1668
17.58 1685
17.6 1633
17.62 1660
17.64 1721
17.66 1677
17.68 1693
17.7 1724
17.72 1649
17.74 1727
17.76 1708
17.78 1754
17.8 1782
17.82 1733
17.84 1707
17.86 1746
17.88 1735
17.9 1795
17.92 1705
17.94 1743
17.96 1757
17.98 1727
18 1753
18.02 1770
18.04 1772
18.06 1706
18.08 1707
18.1 1765
18.12 1868
18.14 1809
18.16 1791
18.18 1773
18.2 1713
18.22 1792
18.24 1809
18.26 1843
18.28 1861
18.3 1850
18.32 1810
18.34 1901
18.36 1812
18.38 1901
18.4 1790
18.42 1840
18.44 1931
18.46 1883
18.48 1862
18.5 1848
18.52 1878
18.54 1919
18.56 1915
18.58 1912
18.6 1954
18.62 1935
18.64 1888
18.66 1944
18.68 1959
18.7 1948
18.72 1929
18.74 1932
18.76 1951
18.78 1931
18.8 2007
18.82 1964
18.84 1996
18.86 1989
18.88 1911
18.9 1944
18.92 1974
18.94 1943
18.96 1967
18.98 1956
19 1975
19.02 2047
19.04 2090
19.06 1979
19.08 1959
19.1 1998
19.12 2023
19.14 2043
19.16 1966
19.18 2079
19.2 2079
19.22 2054
19.24 2074
19.26 2096
19.28 2008
19.3 2122
19.32 2044
19.34 2062
19.36 2072
19.38 2064
19.4 2117
19.42 2129
19.44 2115
19.46 2106
19.48 2158
19.5 1960
19.52 2127
19.54 2121
19.56 2133
19.58 2151
19.6 2216
19.62 2098
19.64 2125
19.66 2156
19.68 2079
19.7 2175
19.72 2164
19.74 2208
19.76 2159
19.78 2195
19.8 2122
19.82 2179
19.84 2198
19.86 2286
19.88 2187
19.9 2083
19.92 2257
19.94 2207
19.96 2204
19.98 2193
20 2179