File: xrd-UiO-67/pxrddata/7-1.ASC
3 1954
3.02 1788
3.04 1659
3.06 1486
3.08 1401
3.1 1300
3.12 1286
3.14 1306
3.16 1291
3.18 1254
3.2 1252
3.22 1214
3.24 1153
3.26 1257
3.28 1233
3.3 1171
3.32 1181
3.34 1143
3.36 1141
3.38 1166
3.4 1081
3.42 1132
3.44 1163
3.46 1104
3.48 1118
3.5 1168
3.52 1136
3.54 1037
3.56 1070
3.58 1081
3.6 1037
3.62 1044
3.64 1025
3.66 1032
3.68 1081
3.7 1088
3.72 1055
3.74 1021
3.76 1058
3.78 1013
3.8 1076
3.82 1041
3.84 969
3.86 1035
3.88 1020
3.9 1051
3.92 1016
3.94 1009
3.96 1034
3.98 966
4 946
4.02 999
4.04 1007
4.06 1015
4.08 999
4.1 968
4.12 991
4.14 967
4.16 956
4.18 992
4.2 947
4.22 976
4.24 972
4.26 981
4.28 949
4.3 959
4.32 959
4.34 896
4.36 969
4.38 957
4.4 989
4.42 921
4.44 923
4.46 992
4.48 985
4.5 972
4.52 926
4.54 951
4.56 946
4.58 1006
4.6 951
4.62 912
4.64 956
4.66 969
4.68 996
4.7 946
4.72 975
4.74 945
4.76 949
4.78 956
4.8 964
4.82 925
4.84 928
4.86 942
4.88 948
4.9 969
4.92 1019
4.94 1030
4.96 1038
4.98 973
5 966
5.02 981
5.04 986
5.06 1020
5.08 994
5.1 1040
5.12 1037
5.14 1013
5.16 1022
5.18 1034
5.2 1061
5.22 1035
5.24 1073
5.26 1042
5.28 1096
5.3 1039
5.32 1099
5.34 1086
5.36 1085
5.38 1066
5.4 1078
5.42 1102
5.44 1062
5.46 1114
5.48 1098
5.5 1095
5.52 1123
5.54 1149
5.56 1145
5.58 1167
5.6 1145
5.62 1184
5.64 1195
5.66 1196
5.68 1157
5.7 1230
5.72 1218
5.74 1136
5.76 1179
5.78 1158
5.8 1140
5.82 1130
5.84 1112
5.86 1135
5.88 1182
5.9 1139
5.92 1124
5.94 1155
5.96 1129
5.98 1123
6 1056
6.02 1069
6.04 1032
6.06 1090
6.08 1002
6.1 1016
6.12 1012
6.14 1015
6.16 990
6.18 986
6.2 988
6.22 949
6.24 993
6.26 963
6.28 909
6.3 938
6.32 872
6.34 915
6.36 955
6.38 881
6.4 906
6.42 893
6.44 857
6.46 901
6.48 904
6.5 833
6.52 856
6.54 861
6.56 878
6.58 868
6.6 853
6.62 847
6.64 852
6.66 824
6.68 835
6.7 870
6.72 916
6.74 844
6.76 805
6.78 799
6.8 800
6.82 816
6.84 779
6.86 841
6.88 838
6.9 800
6.92 819
6.94 859
6.96 790
6.98 766
7 788
7.02 775
7.04 748
7.06 774
7.08 800
7.1 803
7.12 750
7.14 750
7.16 750
7.18 746
7.2 759
7.22 791
7.24 766
7.26 751
7.28 769
7.3 769
7.32 776
7.34 776
7.36 763
7.38 701
7.4 705
7.42 773
7.44 706
7.46 749
7.48 765
7.5 821
7.52 766
7.54 749
7.56 712
7.58 747
7.6 745
7.62 723
7.64 742
7.66 751
7.68 773
7.7 734
7.72 749
7.74 741
7.76 713
7.78 702
7.8 713
7.82 745
7.84 713
7.86 726
7.88 737
7.9 739
7.92 715
7.94 678
7.96 699
7.98 721
8 726
8.02 788
8.04 786
8.06 711
8.08 692
8.1 740
8.12 750
8.14 737
8.16 745
8.18 731
8.2 709
8.22 761
8.24 744
8.26 710
8.28 703
8.3 738
8.32 791
8.34 732
8.36 753
8.38 719
8.4 733
8.42 755
8.44 752
8.46 746
8.48 734
8.5 807
8.52 744
8.54 718
8.56 759
8.58 776
8.6 698
8.62 765
8.64 716
8.66 718
8.68 732
8.7 707
8.72 739
8.74 686
8.76 724
8.78 736
8.8 775
8.82 752
8.84 745
8.86 767
8.88 737
8.9 734
8.92 732
8.94 745
8.96 761
8.98 721
9 777
9.02 758
9.04 760
9.06 764
9.08 767
9.1 836
9.12 761
9.14 746
9.16 762
9.18 745
9.2 765
9.22 785
9.24 736
9.26 763
9.28 761
9.3 726
9.32 759
9.34 767
9.36 801
9.38 813
9.4 820
9.42 851
9.44 816
9.46 770
9.48 826
9.5 770
9.52 805
9.54 798
9.56 756
9.58 730
9.6 828
9.62 806
9.64 744
9.66 783
9.68 780
9.7 824
9.72 812
9.74 794
9.76 774
9.78 805
9.8 812
9.82 758
9.84 756
9.86 775
9.88 744
9.9 739
9.92 755
9.94 770
9.96 770
9.98 769
10 769
10.02 772
10.04 736
10.06 703
10.08 751
10.1 802
10.12 736
10.14 798
10.16 729
10.18 811
10.2 786
10.22 763
10.24 786
10.26 763
10.28 738
10.3 767
10.32 726
10.34 810
10.36 741
10.38 735
10.4 794
10.42 768
10.44 794
10.46 769
10.48 753
10.5 814
10.52 773
10.54 777
10.56 772
10.58 795
10.6 795
10.62 799
10.64 775
10.66 762
10.68 851
10.7 786
10.72 804
10.74 797
10.76 781
10.78 737
10.8 775
10.82 839
10.84 761
10.86 779
10.88 796
10.9 747
10.92 859
10.94 809
10.96 789
10.98 823
11 819
11.02 827
11.04 826
11.06 787
11.08 802
11.1 839
11.12 797
11.14 771
11.16 834
11.18 793
11.2 831
11.22 835
11.24 795
11.26 831
11.28 839
11.3 791
11.32 806
11.34 793
11.36 779
11.38 789
11.4 799
11.42 791
11.44 812
11.46 837
11.48 816
11.5 822
11.52 794
11.54 786
11.56 807
11.58 789
11.6 800
11.62 762
11.64 736
11.66 790
11.68 809
11.7 762
11.72 797
11.74 795
11.76 788
11.78 767
11.8 738
11.82 745
11.84 752
11.86 779
11.88 788
11.9 738
11.92 771
11.94 808
11.96 806
11.98 781
12 744
12.02 760
12.04 773
12.06 768
12.08 753
12.1 747
12.12 794
12.14 769
12.16 752
12.18 773
12.2 783
12.22 752
12.24 751
12.26 798
12.28 817
12.3 769
12.32 750
12.34 820
12.36 792
12.38 727
12.4 792
12.42 768
12.44 786
12.46 754
12.48 838
12.5 805
12.52 790
12.54 794
12.56 788
12.58 819
12.6 784
12.62 793
12.64 787
12.66 813
12.68 779
12.7 807
12.72 798
12.74 762
12.76 796
12.78 755
12.8 809
12.82 807
12.84 814
12.86 862
12.88 800
12.9 829
12.92 834
12.94 813
12.96 825
12.98 775
13 826
13.02 795
13.04 821
13.06 839
13.08 800
13.1 871
13.12 807
13.14 842
13.16 830
13.18 861
13.2 803
13.22 802
13.24 853
13.26 827
13.28 833
13.3 815
13.32 828
13.34 822
13.36 842
13.38 798
13.4 858
13.42 890
13.44 838
13.46 805
13.48 882
13.5 802
13.52 876
13.54 841
13.56 883
13.58 857
13.6 868
13.62 883
13.64 828
13.66 909
13.68 871
13.7 852
13.72 830
13.74 921
13.76 929
13.78 926
13.8 835
13.82 831
13.84 901
13.86 845
13.88 896
13.9 918
13.92 888
13.94 921
13.96 909
13.98 868
14 859
14.02 922
14.04 864
14.06 922
14.08 939
14.1 860
14.12 949
14.14 883
14.16 942
14.18 953
14.2 875
14.22 933
14.24 889
14.26 929
14.28 877
14.3 859
14.32 957
14.34 979
14.36 951
14.38 947
14.4 901
14.42 917
14.44 1002
14.46 974
14.48 919
14.5 951
14.52 977
14.54 1004
14.56 952
14.58 961
14.6 940
14.62 1013
14.64 950
14.66 970
14.68 957
14.7 927
14.72 1037
14.74 964
14.76 930
14.78 998
14.8 1023
14.82 1055
14.84 1018
14.86 993
14.88 976
14.9 1040
14.92 1069
14.94 1021
14.96 983
14.98 1003
15 1002
15.02 1016
15.04 1048
15.06 1002
15.08 1027
15.1 1044
15.12 1047
15.14 1005
15.16 1033
15.18 1084
15.2 1077
15.22 1055
15.24 1052
15.26 1031
15.28 1042
15.3 1061
15.32 1095
15.34 1063
15.36 1093
15.38 1032
15.4 1093
15.42 1127
15.44 1094
15.46 1039
15.48 1052
15.5 1070
15.52 1084
15.54 1071
15.56 1078
15.58 1102
15.6 1097
15.62 1044
15.64 1185
15.66 1053
15.68 1041
15.7 1108
15.72 1119
15.74 1108
15.76 1071
15.78 1099
15.8 1156
15.82 1169
15.84 1166
15.86 1140
15.88 1149
15.9 1133
15.92 1121
15.94 1167
15.96 1096
15.98 1112
16 1165
16.02 1164
16.04 1208
16.06 1207
16.08 1178
16.1 1236
16.12 1170
16.14 1198
16.16 1215
16.18 1171
16.2 1232
16.22 1193
16.24 1147
16.26 1222
16.28 1210
16.3 1241
16.32 1240
16.34 1276
16.36 1217
16.38 1217
16.4 1279
16.42 1252
16.44 1252
16.46 1283
16.48 1263
16.5 1235
16.52 1291
16.54 1353
16.56 1239
16.58 1284
16.6 1247
16.62 1242
16.64 1281
16.66 1335
16.68 1258
16.7 1285
16.72 1289
16.74 1304
16.76 1370
16.78 1364
16.8 1349
16.82 1302
16.84 1371
16.86 1437
16.88 1349
16.9 1404
16.92 1382
16.94 1549
16.96 1524
16.98 1559
17 1575
17.02 1511
17.04 1549
17.06 1561
17.08 1528
17.1 1607
17.12 1527
17.14 1589
17.16 1562
17.18 1541
17.2 1520
17.22 1581
17.24 1521
17.26 1449
17.28 1447
17.3 1455
17.32 1425
17.34 1509
17.36 1436
17.38 1430
17.4 1466
17.42 1512
17.44 1416
17.46 1457
17.48 1474
17.5 1477
17.52 1425
17.54 1527
17.56 1531
17.58 1438
17.6 1535
17.62 1527
17.64 1556
17.66 1565
17.68 1519
17.7 1541
17.72 1572
17.74 1558
17.76 1551
17.78 1506
17.8 1473
17.82 1559
17.84 1562
17.86 1541
17.88 1562
17.9 1564
17.92 1520
17.94 1590
17.96 1635
17.98 1583
18 1609
18.02 1589
18.04 1627
18.06 1599
18.08 1602
18.1 1567
18.12 1689
18.14 1613
18.16 1607
18.18 1686
18.2 1618
18.22 1671
18.24 1677
18.26 1598
18.28 1655
18.3 1687
18.32 1677
18.34 1642
18.36 1696
18.38 1653
18.4 1667
18.42 1749
18.44 1588
18.46 1758
18.48 1720
18.5 1812
18.52 1681
18.54 1675
18.56 1758
18.58 1758
18.6 1761
18.62 1771
18.64 1798
18.66 1755
18.68 1769
18.7 1712
18.72 1771
18.74 1727
18.76 1845
18.78 1781
18.8 1799
18.82 1741
18.84 1815
18.86 1858
18.88 1755
18.9 1839
18.92 1885
18.94 1843
18.96 1877
18.98 1923
19 1931
19.02 1856
19.04 1882
19.06 1856
19.08 1854
19.1 1892
19.12 1942
19.14 1810
19.16 1894
19.18 1834
19.2 1878
19.22 1946
19.24 1904
19.26 1893
19.28 1992
19.3 1915
19.32 1908
19.34 1867
19.36 1927
19.38 1959
19.4 2004
19.42 1968
19.44 1925
19.46 1880
19.48 2057
19.5 1988
19.52 1864
19.54 2035
19.56 1976
19.58 1962
19.6 1965
19.62 2012
19.64 1939
19.66 1949
19.68 1969
19.7 1964
19.72 1983
19.74 2076
19.76 2064
19.78 1979
19.8 2086
19.82 2094
19.84 2026
19.86 2002
19.88 1988
19.9 2005
19.92 2019
19.94 2036
19.96 1986
19.98 1973
20 2033