File: xrd-UiO-67/pxrddata/7-10.ASC
3 2231
3.02 2108
3.04 1983
3.06 1856
3.08 1795
3.1 1661
3.12 1668
3.14 1638
3.16 1634
3.18 1590
3.2 1533
3.22 1531
3.24 1614
3.26 1496
3.28 1586
3.3 1579
3.32 1472
3.34 1455
3.36 1429
3.38 1489
3.4 1499
3.42 1436
3.44 1396
3.46 1419
3.48 1415
3.5 1364
3.52 1447
3.54 1365
3.56 1321
3.58 1349
3.6 1387
3.62 1367
3.64 1364
3.66 1314
3.68 1316
3.7 1384
3.72 1376
3.74 1317
3.76 1252
3.78 1264
3.8 1298
3.82 1283
3.84 1279
3.86 1328
3.88 1330
3.9 1255
3.92 1319
3.94 1337
3.96 1274
3.98 1286
4 1277
4.02 1194
4.04 1278
4.06 1267
4.08 1242
4.1 1243
4.12 1211
4.14 1242
4.16 1250
4.18 1225
4.2 1238
4.22 1217
4.24 1285
4.26 1232
4.28 1232
4.3 1243
4.32 1238
4.34 1267
4.36 1231
4.38 1268
4.4 1220
4.42 1208
4.44 1190
4.46 1184
4.48 1205
4.5 1244
4.52 1185
4.54 1191
4.56 1157
4.58 1246
4.6 1173
4.62 1154
4.64 1162
4.66 1150
4.68 1150
4.7 1192
4.72 1198
4.74 1135
4.76 1161
4.78 1208
4.8 1186
4.82 1164
4.84 1116
4.86 1161
4.88 1205
4.9 1128
4.92 1141
4.94 1142
4.96 1195
4.98 1159
5 1129
5.02 1125
5.04 1196
5.06 1116
5.08 1087
5.1 1140
5.12 1138
5.14 1084
5.16 1104
5.18 1160
5.2 1124
5.22 1131
5.24 1115
5.26 1098
5.28 1104
5.3 1021
5.32 1037
5.34 1145
5.36 1129
5.38 1055
5.4 1119
5.42 1066
5.44 1056
5.46 1065
5.48 1106
5.5 1019
5.52 1066
5.54 1084
5.56 992
5.58 1032
5.6 1023
5.62 1002
5.64 1038
5.66 1022
5.68 1008
5.7 1005
5.72 997
5.74 941
5.76 908
5.78 948
5.8 935
5.82 926
5.84 924
5.86 923
5.88 962
5.9 970
5.92 876
5.94 916
5.96 910
5.98 926
6 824
6.02 848
6.04 875
6.06 831
6.08 849
6.1 858
6.12 843
6.14 874
6.16 814
6.18 769
6.2 831
6.22 805
6.24 811
6.26 771
6.28 841
6.3 747
6.32 747
6.34 766
6.36 780
6.38 800
6.4 761
6.42 804
6.44 749
6.46 725
6.48 716
6.5 721
6.52 709
6.54 756
6.56 746
6.58 710
6.6 735
6.62 708
6.64 685
6.66 713
6.68 682
6.7 698
6.72 707
6.74 707
6.76 705
6.78 722
6.8 658
6.82 681
6.84 675
6.86 644
6.88 665
6.9 647
6.92 668
6.94 677
6.96 657
6.98 655
7 662
7.02 666
7.04 677
7.06 664
7.08 630
7.1 664
7.12 665
7.14 667
7.16 698
7.18 604
7.2 656
7.22 650
7.24 627
7.26 611
7.28 633
7.3 679
7.32 629
7.34 670
7.36 624
7.38 634
7.4 579
7.42 599
7.44 584
7.46 670
7.48 627
7.5 593
7.52 624
7.54 641
7.56 615
7.58 633
7.6 633
7.62 623
7.64 581
7.66 660
7.68 635
7.7 634
7.72 633
7.74 603
7.76 652
7.78 590
7.8 617
7.82 593
7.84 627
7.86 610
7.88 610
7.9 613
7.92 568
7.94 592
7.96 593
7.98 582
8 559
8.02 607
8.04 610
8.06 593
8.08 577
8.1 587
8.12 604
8.14 637
8.16 568
8.18 603
8.2 633
8.22 583
8.24 546
8.26 583
8.28 598
8.3 564
8.32 582
8.34 617
8.36 585
8.38 599
8.4 592
8.42 602
8.44 608
8.46 580
8.48 574
8.5 594
8.52 611
8.54 591
8.56 585
8.58 581
8.6 576
8.62 572
8.64 553
8.66 569
8.68 561
8.7 567
8.72 608
8.74 574
8.76 587
8.78 583
8.8 628
8.82 543
8.84 583
8.86 603
8.88 578
8.9 603
8.92 596
8.94 594
8.96 601
8.98 593
9 543
9.02 583
9.04 635
9.06 594
9.08 580
9.1 617
9.12 558
9.14 574
9.16 588
9.18 566
9.2 553
9.22 560
9.24 584
9.26 570
9.28 558
9.3 568
9.32 541
9.34 557
9.36 559
9.38 567
9.4 566
9.42 560
9.44 570
9.46 607
9.48 562
9.5 556
9.52 584
9.54 613
9.56 547
9.58 587
9.6 576
9.62 570
9.64 535
9.66 531
9.68 543
9.7 563
9.72 552
9.74 562
9.76 572
9.78 532
9.8 567
9.82 593
9.84 559
9.86 559
9.88 541
9.9 561
9.92 556
9.94 518
9.96 605
9.98 540
10 625
10.02 589
10.04 532
10.06 576
10.08 570
10.1 566
10.12 564
10.14 538
10.16 551
10.18 541
10.2 579
10.22 564
10.24 582
10.26 537
10.28 554
10.3 540
10.32 536
10.34 540
10.36 555
10.38 550
10.4 541
10.42 579
10.44 551
10.46 570
10.48 558
10.5 574
10.52 586
10.54 522
10.56 498
10.58 539
10.6 544
10.62 561
10.64 516
10.66 565
10.68 543
10.7 527
10.72 513
10.74 533
10.76 529
10.78 584
10.8 555
10.82 549
10.84 524
10.86 538
10.88 578
10.9 540
10.92 570
10.94 554
10.96 529
10.98 576
11 554
11.02 542
11.04 578
11.06 527
11.08 550
11.1 539
11.12 580
11.14 512
11.16 568
11.18 535
11.2 512
11.22 543
11.24 540
11.26 521
11.28 499
11.3 515
11.32 520
11.34 547
11.36 576
11.38 542
11.4 544
11.42 527
11.44 558
11.46 533
11.48 523
11.5 511
11.52 478
11.54 528
11.56 514
11.58 498
11.6 547
11.62 517
11.64 508
11.66 484
11.68 524
11.7 531
11.72 553
11.74 589
11.76 520
11.78 523
11.8 509
11.82 539
11.84 548
11.86 529
11.88 512
11.9 537
11.92 499
11.94 520
11.96 504
11.98 529
12 538
12.02 545
12.04 519
12.06 536
12.08 530
12.1 566
12.12 556
12.14 529
12.16 552
12.18 542
12.2 523
12.22 536
12.24 547
12.26 502
12.28 537
12.3 533
12.32 505
12.34 473
12.36 524
12.38 518
12.4 533
12.42 538
12.44 503
12.46 530
12.48 563
12.5 506
12.52 559
12.54 562
12.56 537
12.58 552
12.6 481
12.62 532
12.64 542
12.66 531
12.68 557
12.7 513
12.72 569
12.74 546
12.76 547
12.78 491
12.8 525
12.82 561
12.84 527
12.86 541
12.88 575
12.9 570
12.92 545
12.94 545
12.96 551
12.98 584
13 537
13.02 526
13.04 515
13.06 576
13.08 530
13.1 525
13.12 548
13.14 536
13.16 567
13.18 550
13.2 554
13.22 538
13.24 569
13.26 539
13.28 530
13.3 524
13.32 537
13.34 574
13.36 546
13.38 559
13.4 555
13.42 548
13.44 566
13.46 608
13.48 531
13.5 562
13.52 621
13.54 560
13.56 557
13.58 612
13.6 589
13.62 561
13.64 574
13.66 559
13.68 510
13.7 582
13.72 515
13.74 565
13.76 609
13.78 571
13.8 586
13.82 558
13.84 551
13.86 567
13.88 613
13.9 570
13.92 584
13.94 604
13.96 534
13.98 576
14 591
14.02 556
14.04 567
14.06 572
14.08 611
14.1 591
14.12 599
14.14 587
14.16 589
14.18 542
14.2 596
14.22 591
14.24 608
14.26 586
14.28 609
14.3 603
14.32 593
14.34 572
14.36 625
14.38 607
14.4 630
14.42 579
14.44 594
14.46 591
14.48 559
14.5 596
14.52 610
14.54 585
14.56 608
14.58 615
14.6 640
14.62 628
14.64 586
14.66 607
14.68 589
14.7 668
14.72 551
14.74 677
14.76 620
14.78 646
14.8 600
14.82 592
14.84 569
14.86 628
14.88 656
14.9 675
14.92 640
14.94 619
14.96 665
14.98 641
15 654
15.02 638
15.04 634
15.06 671
15.08 652
15.1 646
15.12 651
15.14 599
15.16 675
15.18 643
15.2 627
15.22 630
15.24 642
15.26 650
15.28 654
15.3 684
15.32 617
15.34 666
15.36 624
15.38 647
15.4 652
15.42 655
15.44 643
15.46 710
15.48 673
15.5 670
15.52 646
15.54 654
15.56 666
15.58 669
15.6 705
15.62 692
15.64 663
15.66 656
15.68 665
15.7 684
15.72 646
15.74 695
15.76 684
15.78 707
15.8 672
15.82 689
15.84 663
15.86 673
15.88 695
15.9 664
15.92 686
15.94 670
15.96 733
15.98 728
16 683
16.02 697
16.04 692
16.06 711
16.08 773
16.1 699
16.12 705
16.14 723
16.16 708
16.18 736
16.2 730
16.22 803
16.24 725
16.26 728
16.28 721
16.3 794
16.32 732
16.34 716
16.36 727
16.38 771
16.4 762
16.42 731
16.44 819
16.46 760
16.48 745
16.5 751
16.52 731
16.54 779
16.56 795
16.58 697
16.6 812
16.62 740
16.64 779
16.66 771
16.68 764
16.7 760
16.72 797
16.74 790
16.76 753
16.78 789
16.8 751
16.82 796
16.84 778
16.86 804
16.88 787
16.9 802
16.92 776
16.94 764
16.96 778
16.98 793
17 770
17.02 800
17.04 838
17.06 801
17.08 798
17.1 843
17.12 820
17.14 781
17.16 816
17.18 793
17.2 859
17.22 813
17.24 824
17.26 842
17.28 780
17.3 842
17.32 859
17.34 833
17.36 874
17.38 851
17.4 832
17.42 884
17.44 851
17.46 869
17.48 864
17.5 891
17.52 884
17.54 863
17.56 851
17.58 858
17.6 866
17.62 832
17.64 854
17.66 894
17.68 829
17.7 878
17.72 907
17.74 841
17.76 860
17.78 861
17.8 860
17.82 926
17.84 943
17.86 867
17.88 948
17.9 844
17.92 895
17.94 877
17.96 944
17.98 871
18 885
18.02 931
18.04 944
18.06 917
18.08 922
18.1 945
18.12 875
18.14 903
18.16 924
18.18 943
18.2 909
18.22 956
18.24 952
18.26 869
18.28 910
18.3 975
18.32 900
18.34 911
18.36 913
18.38 968
18.4 1051
18.42 1019
18.44 962
18.46 925
18.48 930
18.5 965
18.52 978
18.54 927
18.56 930
18.58 938
18.6 981
18.62 971
18.64 997
18.66 955
18.68 983
18.7 982
18.72 974
18.74 991
18.76 982
18.78 989
18.8 931
18.82 970
18.84 962
18.86 989
18.88 969
18.9 995
18.92 973
18.94 958
18.96 1016
18.98 1019
19 1044
19.02 994
19.04 1034
19.06 996
19.08 981
19.1 995
19.12 1039
19.14 987
19.16 988
19.18 977
19.2 1006
19.22 997
19.24 994
19.26 1038
19.28 1018
19.3 1044
19.32 1074
19.34 999
19.36 1052
19.38 1009
19.4 1060
19.42 1055
19.44 1086
19.46 1065
19.48 1035
19.5 998
19.52 1039
19.54 1032
19.56 1041
19.58 1089
19.6 1048
19.62 1070
19.64 1089
19.66 1071
19.68 1025
19.7 1038
19.72 1083
19.74 1044
19.76 1041
19.78 1082
19.8 1060
19.82 1083
19.84 1079
19.86 1027
19.88 1056
19.9 1072
19.92 1052
19.94 1052
19.96 1063
19.98 1057
20 1092