File: xrd-UiO-67/pxrddata/7-12.ASC
3 2139
3.02 1909
3.04 1792
3.06 1654
3.08 1653
3.1 1607
3.12 1587
3.14 1560
3.16 1506
3.18 1473
3.2 1437
3.22 1455
3.24 1464
3.26 1408
3.28 1394
3.3 1323
3.32 1344
3.34 1335
3.36 1278
3.38 1255
3.4 1269
3.42 1230
3.44 1258
3.46 1244
3.48 1201
3.5 1212
3.52 1221
3.54 1199
3.56 1159
3.58 1194
3.6 1227
3.62 1096
3.64 1156
3.66 1082
3.68 1161
3.7 1101
3.72 1122
3.74 1111
3.76 1069
3.78 1091
3.8 1077
3.82 1030
3.84 1029
3.86 997
3.88 1054
3.9 1035
3.92 965
3.94 968
3.96 1021
3.98 982
4 983
4.02 1002
4.04 940
4.06 885
4.08 889
4.1 911
4.12 900
4.14 933
4.16 915
4.18 921
4.2 955
4.22 914
4.24 857
4.26 867
4.28 908
4.3 892
4.32 825
4.34 812
4.36 857
4.38 800
4.4 789
4.42 807
4.44 847
4.46 828
4.48 832
4.5 879
4.52 804
4.54 837
4.56 821
4.58 756
4.6 734
4.62 782
4.64 733
4.66 729
4.68 739
4.7 780
4.72 708
4.74 766
4.76 745
4.78 713
4.8 748
4.82 738
4.84 729
4.86 774
4.88 704
4.9 741
4.92 723
4.94 744
4.96 750
4.98 703
5 708
5.02 746
5.04 695
5.06 718
5.08 655
5.1 659
5.12 646
5.14 678
5.16 703
5.18 657
5.2 653
5.22 652
5.24 699
5.26 674
5.28 667
5.3 667
5.32 676
5.34 669
5.36 643
5.38 645
5.4 653
5.42 628
5.44 691
5.46 649
5.48 646
5.5 652
5.52 676
5.54 612
5.56 677
5.58 625
5.6 669
5.62 695
5.64 645
5.66 629
5.68 621
5.7 666
5.72 626
5.74 584
5.76 678
5.78 626
5.8 642
5.82 631
5.84 632
5.86 681
5.88 636
5.9 596
5.92 623
5.94 610
5.96 645
5.98 652
6 622
6.02 618
6.04 701
6.06 613
6.08 641
6.1 661
6.12 634
6.14 688
6.16 641
6.18 661
6.2 680
6.22 650
6.24 622
6.26 687
6.28 655
6.3 659
6.32 669
6.34 652
6.36 672
6.38 652
6.4 627
6.42 679
6.44 656
6.46 630
6.48 617
6.5 666
6.52 631
6.54 641
6.56 642
6.58 654
6.6 648
6.62 663
6.64 671
6.66 680
6.68 657
6.7 664
6.72 646
6.74 649
6.76 661
6.78 659
6.8 652
6.82 652
6.84 662
6.86 631
6.88 666
6.9 614
6.92 637
6.94 614
6.96 656
6.98 624
7 650
7.02 653
7.04 645
7.06 617
7.08 644
7.1 685
7.12 637
7.14 637
7.16 598
7.18 647
7.2 654
7.22 620
7.24 677
7.26 648
7.28 622
7.3 634
7.32 623
7.34 648
7.36 624
7.38 629
7.4 586
7.42 638
7.44 613
7.46 637
7.48 617
7.5 647
7.52 625
7.54 547
7.56 592
7.58 629
7.6 629
7.62 637
7.64 596
7.66 610
7.68 603
7.7 577
7.72 636
7.74 647
7.76 625
7.78 608
7.8 618
7.82 626
7.84 605
7.86 631
7.88 648
7.9 617
7.92 632
7.94 604
7.96 618
7.98 641
8 642
8.02 627
8.04 578
8.06 638
8.08 596
8.1 593
8.12 660
8.14 664
8.16 622
8.18 611
8.2 617
8.22 617
8.24 644
8.26 645
8.28 639
8.3 617
8.32 648
8.34 590
8.36 641
8.38 650
8.4 651
8.42 633
8.44 645
8.46 575
8.48 616
8.5 638
8.52 639
8.54 680
8.56 638
8.58 637
8.6 684
8.62 672
8.64 666
8.66 640
8.68 743
8.7 695
8.72 697
8.74 741
8.76 703
8.78 743
8.8 821
8.82 809
8.84 870
8.86 854
8.88 870
8.9 928
8.92 935
8.94 1085
8.96 1204
8.98 1320
9 1442
9.02 1610
9.04 1523
9.06 1465
9.08 1246
9.1 1139
9.12 1011
9.14 955
9.16 913
9.18 807
9.2 769
9.22 736
9.24 731
9.26 673
9.28 674
9.3 737
9.32 677
9.34 678
9.36 629
9.38 660
9.4 663
9.42 650
9.44 648
9.46 696
9.48 644
9.5 630
9.52 650
9.54 644
9.56 629
9.58 628
9.6 620
9.62 651
9.64 659
9.66 656
9.68 628
9.7 691
9.72 687
9.74 618
9.76 714
9.78 685
9.8 748
9.82 738
9.84 765
9.86 698
9.88 740
9.9 752
9.92 763
9.94 788
9.96 755
9.98 793
10 740
10.02 726
10.04 741
10.06 676
10.08 678
10.1 689
10.12 685
10.14 639
10.16 617
10.18 733
10.2 645
10.22 613
10.24 649
10.26 627
10.28 619
10.3 602
10.32 616
10.34 627
10.36 627
10.38 611
10.4 610
10.42 583
10.44 659
10.46 577
10.48 568
10.5 619
10.52 580
10.54 557
10.56 671
10.58 584
10.6 644
10.62 633
10.64 557
10.66 601
10.68 577
10.7 585
10.72 613
10.74 657
10.76 547
10.78 563
10.8 660
10.82 603
10.84 568
10.86 605
10.88 607
10.9 609
10.92 593
10.94 601
10.96 643
10.98 592
11 608
11.02 590
11.04 601
11.06 613
11.08 624
11.1 592
11.12 575
11.14 567
11.16 585
11.18 556
11.2 614
11.22 603
11.24 539
11.26 538
11.28 589
11.3 594
11.32 583
11.34 563
11.36 589
11.38 577
11.4 613
11.42 545
11.44 569
11.46 550
11.48 593
11.5 625
11.52 589
11.54 568
11.56 567
11.58 578
11.6 622
11.62 582
11.64 530
11.66 577
11.68 599
11.7 544
11.72 613
11.74 599
11.76 612
11.78 558
11.8 597
11.82 592
11.84 575
11.86 571
11.88 621
11.9 582
11.92 543
11.94 579
11.96 559
11.98 609
12 606
12.02 590
12.04 557
12.06 568
12.08 605
12.1 550
12.12 573
12.14 561
12.16 565
12.18 557
12.2 561
12.22 604
12.24 605
12.26 602
12.28 581
12.3 558
12.32 591
12.34 578
12.36 563
12.38 599
12.4 603
12.42 609
12.44 575
12.46 590
12.48 647
12.5 606
12.52 614
12.54 595
12.56 653
12.58 636
12.6 643
12.62 650
12.64 655
12.66 636
12.68 692
12.7 677
12.72 639
12.74 576
12.76 614
12.78 596
12.8 623
12.82 618
12.84 636
12.86 618
12.88 596
12.9 607
12.92 613
12.94 642
12.96 608
12.98 628
13 583
13.02 638
13.04 537
13.06 595
13.08 569
13.1 601
13.12 605
13.14 608
13.16 636
13.18 627
13.2 628
13.22 606
13.24 626
13.26 616
13.28 637
13.3 663
13.32 656
13.34 606
13.36 624
13.38 601
13.4 624
13.42 613
13.44 601
13.46 642
13.48 617
13.5 652
13.52 609
13.54 632
13.56 585
13.58 592
13.6 610
13.62 604
13.64 588
13.66 637
13.68 624
13.7 640
13.72 637
13.74 586
13.76 632
13.78 653
13.8 626
13.82 628
13.84 606
13.86 635
13.88 592
13.9 625
13.92 637
13.94 611
13.96 616
13.98 641
14 614
14.02 572
14.04 644
14.06 606
14.08 615
14.1 641
14.12 634
14.14 626
14.16 653
14.18 636
14.2 636
14.22 598
14.24 633
14.26 614
14.28 649
14.3 630
14.32 635
14.34 651
14.36 651
14.38 669
14.4 627
14.42 652
14.44 650
14.46 646
14.48 674
14.5 668
14.52 640
14.54 619
14.56 659
14.58 662
14.6 653
14.62 665
14.64 700
14.66 632
14.68 672
14.7 692
14.72 610
14.74 649
14.76 642
14.78 639
14.8 673
14.82 629
14.84 616
14.86 673
14.88 686
14.9 666
14.92 659
14.94 631
14.96 652
14.98 683
15 687
15.02 629
15.04 661
15.06 669
15.08 655
15.1 651
15.12 693
15.14 662
15.16 662
15.18 687
15.2 700
15.22 707
15.24 686
15.26 686
15.28 729
15.3 698
15.32 672
15.34 734
15.36 688
15.38 662
15.4 689
15.42 725
15.44 688
15.46 708
15.48 723
15.5 710
15.52 719
15.54 693
15.56 664
15.58 710
15.6 690
15.62 742
15.64 698
15.66 676
15.68 720
15.7 716
15.72 703
15.74 744
15.76 741
15.78 688
15.8 703
15.82 749
15.84 786
15.86 714
15.88 778
15.9 708
15.92 729
15.94 700
15.96 753
15.98 743
16 748
16.02 677
16.04 766
16.06 742
16.08 763
16.1 726
16.12 711
16.14 705
16.16 741
16.18 773
16.2 747
16.22 765
16.24 811
16.26 755
16.28 782
16.3 706
16.32 807
16.34 780
16.36 803
16.38 746
16.4 781
16.42 775
16.44 791
16.46 818
16.48 802
16.5 769
16.52 805
16.54 820
16.56 807
16.58 808
16.6 848
16.62 798
16.64 784
16.66 852
16.68 814
16.7 824
16.72 851
16.74 870
16.76 901
16.78 932
16.8 909
16.82 924
16.84 970
16.86 1023
16.88 1108
16.9 1228
16.92 1221
16.94 1259
16.96 1357
16.98 1300
17 1345
17.02 1283
17.04 1179
17.06 1118
17.08 1071
17.1 1045
17.12 1006
17.14 965
17.16 946
17.18 877
17.2 903
17.22 904
17.24 880
17.26 894
17.28 882
17.3 920
17.32 889
17.34 898
17.36 889
17.38 903
17.4 870
17.42 855
17.44 871
17.46 885
17.48 903
17.5 843
17.52 861
17.54 883
17.56 858
17.58 889
17.6 917
17.62 964
17.64 936
17.66 923
17.68 916
17.7 956
17.72 985
17.74 899
17.76 930
17.78 876
17.8 941
17.82 906
17.84 910
17.86 946
17.88 959
17.9 978
17.92 914
17.94 977
17.96 942
17.98 904
18 944
18.02 981
18.04 960
18.06 942
18.08 965
18.1 920
18.12 999
18.14 1002
18.16 957
18.18 955
18.2 951
18.22 969
18.24 1016
18.26 984
18.28 1015
18.3 1005
18.32 999
18.34 1001
18.36 988
18.38 1033
18.4 1049
18.42 984
18.44 953
18.46 1044
18.48 1045
18.5 1005
18.52 997
18.54 1019
18.56 985
18.58 1054
18.6 1008
18.62 1026
18.64 1031
18.66 1032
18.68 1020
18.7 1013
18.72 1033
18.74 1076
18.76 1089
18.78 1060
18.8 1018
18.82 1088
18.84 1062
18.86 1097
18.88 1059
18.9 1077
18.92 1064
18.94 1075
18.96 1029
18.98 1046
19 1082
19.02 1085
19.04 1087
19.06 1101
19.08 1159
19.1 1092
19.12 1052
19.14 988
19.16 1118
19.18 1051
19.2 1099
19.22 1127
19.24 1078
19.26 1106
19.28 1111
19.3 1160
19.32 1070
19.34 1135
19.36 1138
19.38 1079
19.4 1133
19.42 1105
19.44 1184
19.46 1113
19.48 1091
19.5 1160
19.52 1153
19.54 1175
19.56 1155
19.58 1174
19.6 1191
19.62 1173
19.64 1178
19.66 1188
19.68 1189
19.7 1212
19.72 1206
19.74 1175
19.76 1218
19.78 1191
19.8 1184
19.82 1192
19.84 1208
19.86 1213
19.88 1176
19.9 1232
19.92 1156
19.94 1206
19.96 1255
19.98 1214
20 1204