File: xrd-UiO-67/pxrddata/7-14.ASC
3 2112
3.02 1945
3.04 1815
3.06 1686
3.08 1658
3.1 1588
3.12 1546
3.14 1549
3.16 1454
3.18 1491
3.2 1403
3.22 1467
3.24 1406
3.26 1453
3.28 1400
3.3 1389
3.32 1420
3.34 1368
3.36 1361
3.38 1345
3.4 1296
3.42 1281
3.44 1366
3.46 1292
3.48 1266
3.5 1236
3.52 1266
3.54 1260
3.56 1252
3.58 1268
3.6 1233
3.62 1260
3.64 1203
3.66 1275
3.68 1167
3.7 1186
3.72 1192
3.74 1247
3.76 1177
3.78 1177
3.8 1178
3.82 1140
3.84 1150
3.86 1129
3.88 1165
3.9 1113
3.92 1181
3.94 1146
3.96 1142
3.98 1146
4 1156
4.02 1136
4.04 1134
4.06 1173
4.08 1118
4.1 1169
4.12 1096
4.14 1085
4.16 1167
4.18 1056
4.2 1113
4.22 1108
4.24 1118
4.26 1075
4.28 1137
4.3 1040
4.32 1091
4.34 1117
4.36 1070
4.38 1077
4.4 1117
4.42 1084
4.44 1075
4.46 1026
4.48 1075
4.5 1103
4.52 1080
4.54 1070
4.56 1076
4.58 1095
4.6 1116
4.62 1116
4.64 1060
4.66 1070
4.68 1078
4.7 1027
4.72 1071
4.74 1041
4.76 1080
4.78 1068
4.8 1125
4.82 1052
4.84 1074
4.86 1105
4.88 1169
4.9 1061
4.92 1091
4.94 1116
4.96 1136
4.98 1156
5 1132
5.02 1141
5.04 1194
5.06 1104
5.08 1108
5.1 1171
5.12 1203
5.14 1147
5.16 1175
5.18 1082
5.2 1175
5.22 1178
5.24 1174
5.26 1183
5.28 1234
5.3 1186
5.32 1185
5.34 1213
5.36 1161
5.38 1178
5.4 1178
5.42 1155
5.44 1210
5.46 1194
5.48 1194
5.5 1180
5.52 1219
5.54 1227
5.56 1221
5.58 1164
5.6 1222
5.62 1190
5.64 1139
5.66 1188
5.68 1167
5.7 1195
5.72 1214
5.74 1095
5.76 1115
5.78 1153
5.8 1186
5.82 1120
5.84 1159
5.86 1084
5.88 1105
5.9 1064
5.92 1032
5.94 1098
5.96 1039
5.98 1023
6 1039
6.02 964
6.04 1024
6.06 972
6.08 926
6.1 991
6.12 973
6.14 935
6.16 943
6.18 925
6.2 929
6.22 900
6.24 989
6.26 847
6.28 954
6.3 946
6.32 870
6.34 912
6.36 910
6.38 929
6.4 851
6.42 876
6.44 894
6.46 856
6.48 859
6.5 889
6.52 879
6.54 855
6.56 811
6.58 804
6.6 820
6.62 805
6.64 844
6.66 814
6.68 781
6.7 784
6.72 756
6.74 888
6.76 786
6.78 775
6.8 788
6.82 778
6.84 764
6.86 817
6.88 765
6.9 735
6.92 727
6.94 736
6.96 708
6.98 775
7 758
7.02 705
7.04 759
7.06 720
7.08 691
7.1 715
7.12 720
7.14 705
7.16 645
7.18 691
7.2 743
7.22 755
7.24 740
7.26 703
7.28 704
7.3 699
7.32 721
7.34 705
7.36 701
7.38 706
7.4 708
7.42 724
7.44 760
7.46 703
7.48 691
7.5 694
7.52 626
7.54 663
7.56 693
7.58 710
7.6 690
7.62 676
7.64 718
7.66 673
7.68 685
7.7 720
7.72 709
7.74 723
7.76 662
7.78 634
7.8 670
7.82 658
7.84 714
7.86 669
7.88 696
7.9 642
7.92 645
7.94 632
7.96 679
7.98 636
8 653
8.02 677
8.04 683
8.06 649
8.08 638
8.1 622
8.12 658
8.14 659
8.16 684
8.18 722
8.2 653
8.22 631
8.24 638
8.26 656
8.28 607
8.3 693
8.32 673
8.34 678
8.36 686
8.38 693
8.4 660
8.42 703
8.44 680
8.46 621
8.48 634
8.5 623
8.52 625
8.54 626
8.56 654
8.58 673
8.6 635
8.62 656
8.64 646
8.66 674
8.68 635
8.7 671
8.72 670
8.74 708
8.76 677
8.78 648
8.8 717
8.82 676
8.84 671
8.86 718
8.88 686
8.9 727
8.92 733
8.94 769
8.96 743
8.98 757
9 807
9.02 843
9.04 918
9.06 913
9.08 841
9.1 772
9.12 747
9.14 798
9.16 738
9.18 756
9.2 739
9.22 756
9.24 726
9.26 759
9.28 752
9.3 698
9.32 693
9.34 706
9.36 701
9.38 692
9.4 681
9.42 715
9.44 671
9.46 697
9.48 624
9.5 716
9.52 720
9.54 699
9.56 642
9.58 670
9.6 669
9.62 700
9.64 667
9.66 651
9.68 682
9.7 692
9.72 631
9.74 642
9.76 692
9.78 656
9.8 634
9.82 689
9.84 685
9.86 680
9.88 627
9.9 662
9.92 705
9.94 626
9.96 681
9.98 649
10 638
10.02 652
10.04 628
10.06 635
10.08 678
10.1 660
10.12 662
10.14 678
10.16 652
10.18 670
10.2 646
10.22 631
10.24 626
10.26 663
10.28 631
10.3 660
10.32 637
10.34 651
10.36 654
10.38 677
10.4 678
10.42 670
10.44 670
10.46 624
10.48 668
10.5 625
10.52 640
10.54 665
10.56 653
10.58 635
10.6 674
10.62 676
10.64 682
10.66 671
10.68 707
10.7 695
10.72 669
10.74 658
10.76 614
10.78 710
10.8 654
10.82 633
10.84 647
10.86 673
10.88 639
10.9 620
10.92 612
10.94 677
10.96 631
10.98 652
11 638
11.02 653
11.04 678
11.06 646
11.08 623
11.1 652
11.12 655
11.14 650
11.16 663
11.18 598
11.2 659
11.22 637
11.24 649
11.26 613
11.28 642
11.3 648
11.32 635
11.34 651
11.36 621
11.38 631
11.4 620
11.42 644
11.44 642
11.46 613
11.48 630
11.5 617
11.52 687
11.54 615
11.56 632
11.58 606
11.6 644
11.62 663
11.64 651
11.66 648
11.68 687
11.7 642
11.72 643
11.74 628
11.76 633
11.78 597
11.8 645
11.82 624
11.84 617
11.86 629
11.88 661
11.9 591
11.92 626
11.94 627
11.96 623
11.98 625
12 610
12.02 612
12.04 563
12.06 596
12.08 630
12.1 602
12.12 649
12.14 597
12.16 621
12.18 618
12.2 625
12.22 630
12.24 595
12.26 628
12.28 611
12.3 626
12.32 612
12.34 630
12.36 665
12.38 637
12.4 614
12.42 623
12.44 588
12.46 634
12.48 631
12.5 631
12.52 615
12.54 572
12.56 590
12.58 634
12.6 627
12.62 667
12.64 647
12.66 590
12.68 648
12.7 622
12.72 645
12.74 577
12.76 573
12.78 646
12.8 613
12.82 639
12.84 606
12.86 598
12.88 649
12.9 646
12.92 631
12.94 603
12.96 634
12.98 665
13 631
13.02 663
13.04 570
13.06 657
13.08 637
13.1 646
13.12 640
13.14 616
13.16 651
13.18 640
13.2 644
13.22 668
13.24 674
13.26 658
13.28 622
13.3 677
13.32 652
13.34 672
13.36 651
13.38 702
13.4 678
13.42 656
13.44 633
13.46 654
13.48 630
13.5 634
13.52 651
13.54 653
13.56 643
13.58 646
13.6 653
13.62 669
13.64 705
13.66 685
13.68 694
13.7 676
13.72 661
13.74 685
13.76 696
13.78 662
13.8 674
13.82 702
13.84 680
13.86 717
13.88 752
13.9 694
13.92 667
13.94 664
13.96 686
13.98 708
14 648
14.02 691
14.04 652
14.06 681
14.08 665
14.1 711
14.12 678
14.14 668
14.16 716
14.18 710
14.2 728
14.22 685
14.24 688
14.26 686
14.28 720
14.3 736
14.32 718
14.34 712
14.36 698
14.38 676
14.4 692
14.42 708
14.44 717
14.46 740
14.48 682
14.5 736
14.52 698
14.54 697
14.56 710
14.58 698
14.6 769
14.62 742
14.64 701
14.66 787
14.68 767
14.7 717
14.72 733
14.74 702
14.76 731
14.78 734
14.8 780
14.82 728
14.84 733
14.86 731
14.88 711
14.9 730
14.92 746
14.94 769
14.96 748
14.98 709
15 750
15.02 715
15.04 794
15.06 752
15.08 756
15.1 806
15.12 782
15.14 777
15.16 775
15.18 762
15.2 797
15.22 697
15.24 805
15.26 786
15.28 810
15.3 822
15.32 794
15.34 776
15.36 768
15.38 813
15.4 782
15.42 806
15.44 785
15.46 767
15.48 761
15.5 831
15.52 759
15.54 818
15.56 851
15.58 830
15.6 793
15.62 808
15.64 830
15.66 811
15.68 784
15.7 744
15.72 833
15.74 823
15.76 796
15.78 782
15.8 734
15.82 796
15.84 869
15.86 838
15.88 829
15.9 853
15.92 820
15.94 834
15.96 801
15.98 845
16 807
16.02 852
16.04 812
16.06 845
16.08 816
16.1 872
16.12 882
16.14 803
16.16 819
16.18 846
16.2 895
16.22 877
16.24 847
16.26 844
16.28 821
16.3 839
16.32 852
16.34 846
16.36 861
16.38 859
16.4 909
16.42 897
16.44 873
16.46 862
16.48 902
16.5 872
16.52 838
16.54 960
16.56 933
16.58 949
16.6 899
16.62 966
16.64 960
16.66 947
16.68 1019
16.7 930
16.72 936
16.74 964
16.76 931
16.78 1013
16.8 962
16.82 1043
16.84 1107
16.86 1148
16.88 1127
16.9 1223
16.92 1299
16.94 1419
16.96 1580
16.98 1792
17 1929
17.02 2078
17.04 1956
17.06 1926
17.08 1835
17.1 1934
17.12 1961
17.14 2026
17.16 2002
17.18 1929
17.2 1676
17.22 1486
17.24 1337
17.26 1116
17.28 1078
17.3 1044
17.32 978
17.34 975
17.36 1034
17.38 1053
17.4 1006
17.42 990
17.44 1040
17.46 963
17.48 1046
17.5 1033
17.52 1008
17.54 1072
17.56 1046
17.58 1067
17.6 1040
17.62 1014
17.64 1033
17.66 1075
17.68 1027
17.7 1094
17.72 1077
17.74 1036
17.76 1049
17.78 1013
17.8 1063
17.82 1093
17.84 1065
17.86 1062
17.88 1069
17.9 1087
17.92 1090
17.94 1118
17.96 1196
17.98 1098
18 1132
18.02 1061
18.04 1132
18.06 1028
18.08 1105
18.1 1132
18.12 1147
18.14 1114
18.16 1137
18.18 1150
18.2 1120
18.22 1128
18.24 1101
18.26 1155
18.28 1163
18.3 1142
18.32 1132
18.34 1164
18.36 1147
18.38 1123
18.4 1192
18.42 1153
18.44 1196
18.46 1126
18.48 1171
18.5 1138
18.52 1214
18.54 1156
18.56 1224
18.58 1180
18.6 1155
18.62 1216
18.64 1177
18.66 1258
18.68 1256
18.7 1219
18.72 1152
18.74 1204
18.76 1188
18.78 1218
18.8 1215
18.82 1241
18.84 1194
18.86 1262
18.88 1182
18.9 1256
18.92 1261
18.94 1274
18.96 1297
18.98 1254
19 1231
19.02 1254
19.04 1314
19.06 1220
19.08 1317
19.1 1216
19.12 1256
19.14 1242
19.16 1297
19.18 1205
19.2 1298
19.22 1209
19.24 1288
19.26 1337
19.28 1260
19.3 1337
19.32 1328
19.34 1312
19.36 1324
19.38 1451
19.4 1341
19.42 1350
19.44 1296
19.46 1345
19.48 1313
19.5 1271
19.52 1413
19.54 1365
19.56 1301
19.58 1377
19.6 1288
19.62 1307
19.64 1405
19.66 1356
19.68 1344
19.7 1369
19.72 1354
19.74 1321
19.76 1313
19.78 1422
19.8 1413
19.82 1335
19.84 1345
19.86 1307
19.88 1336
19.9 1418
19.92 1365
19.94 1393
19.96 1342
19.98 1344
20 1384