File: xrd-UiO-67/pxrddata/7-15.ASC
3 2429
3.02 2334
3.04 2212
3.06 2129
3.08 2050
3.1 1963
3.12 1929
3.14 1838
3.16 1845
3.18 1963
3.2 1787
3.22 1766
3.24 1756
3.26 1794
3.28 1792
3.3 1689
3.32 1724
3.34 1694
3.36 1622
3.38 1609
3.4 1647
3.42 1582
3.44 1484
3.46 1537
3.48 1591
3.5 1538
3.52 1483
3.54 1548
3.56 1492
3.58 1447
3.6 1414
3.62 1442
3.64 1459
3.66 1408
3.68 1404
3.7 1442
3.72 1449
3.74 1378
3.76 1319
3.78 1361
3.8 1377
3.82 1343
3.84 1357
3.86 1319
3.88 1332
3.9 1334
3.92 1290
3.94 1362
3.96 1266
3.98 1322
4 1181
4.02 1166
4.04 1210
4.06 1172
4.08 1156
4.1 1167
4.12 1164
4.14 1154
4.16 1130
4.18 1115
4.2 1092
4.22 1109
4.24 1121
4.26 1107
4.28 1108
4.3 1144
4.32 1045
4.34 1049
4.36 1097
4.38 1032
4.4 1071
4.42 1070
4.44 1056
4.46 1061
4.48 1068
4.5 1009
4.52 1004
4.54 1047
4.56 1012
4.58 1036
4.6 993
4.62 1000
4.64 1018
4.66 1064
4.68 919
4.7 936
4.72 976
4.74 985
4.76 1001
4.78 995
4.8 977
4.82 967
4.84 947
4.86 1027
4.88 939
4.9 908
4.92 931
4.94 890
4.96 925
4.98 917
5 916
5.02 882
5.04 903
5.06 928
5.08 900
5.1 870
5.12 883
5.14 893
5.16 893
5.18 939
5.2 940
5.22 890
5.24 919
5.26 898
5.28 856
5.3 883
5.32 902
5.34 889
5.36 903
5.38 898
5.4 880
5.42 833
5.44 895
5.46 900
5.48 856
5.5 870
5.52 865
5.54 896
5.56 875
5.58 892
5.6 856
5.62 840
5.64 878
5.66 881
5.68 917
5.7 896
5.72 913
5.74 862
5.76 873
5.78 858
5.8 881
5.82 883
5.84 850
5.86 892
5.88 828
5.9 882
5.92 861
5.94 862
5.96 878
5.98 880
6 894
6.02 822
6.04 893
6.06 858
6.08 816
6.1 850
6.12 907
6.14 902
6.16 868
6.18 903
6.2 860
6.22 849
6.24 841
6.26 840
6.28 860
6.3 883
6.32 834
6.34 878
6.36 872
6.38 834
6.4 859
6.42 868
6.44 860
6.46 859
6.48 829
6.5 818
6.52 879
6.54 865
6.56 856
6.58 857
6.6 870
6.62 852
6.64 857
6.66 849
6.68 895
6.7 792
6.72 863
6.74 885
6.76 891
6.78 802
6.8 895
6.82 793
6.84 849
6.86 810
6.88 866
6.9 826
6.92 819
6.94 792
6.96 815
6.98 817
7 869
7.02 884
7.04 840
7.06 858
7.08 814
7.1 887
7.12 822
7.14 810
7.16 810
7.18 854
7.2 812
7.22 850
7.24 810
7.26 850
7.28 832
7.3 802
7.32 798
7.34 848
7.36 810
7.38 823
7.4 853
7.42 838
7.44 798
7.46 800
7.48 844
7.5 833
7.52 817
7.54 805
7.56 839
7.58 788
7.6 786
7.62 885
7.64 814
7.66 790
7.68 822
7.7 790
7.72 834
7.74 849
7.76 825
7.78 808
7.8 836
7.82 828
7.84 826
7.86 792
7.88 855
7.9 800
7.92 824
7.94 811
7.96 827
7.98 825
8 782
8.02 828
8.04 814
8.06 802
8.08 780
8.1 786
8.12 820
8.14 775
8.16 780
8.18 846
8.2 809
8.22 782
8.24 808
8.26 756
8.28 839
8.3 805
8.32 799
8.34 783
8.36 806
8.38 845
8.4 784
8.42 786
8.44 789
8.46 789
8.48 838
8.5 773
8.52 784
8.54 792
8.56 803
8.58 791
8.6 772
8.62 817
8.64 762
8.66 843
8.68 752
8.7 785
8.72 783
8.74 818
8.76 768
8.78 764
8.8 760
8.82 805
8.84 720
8.86 781
8.88 859
8.9 762
8.92 807
8.94 776
8.96 799
8.98 813
9 761
9.02 789
9.04 785
9.06 748
9.08 781
9.1 771
9.12 798
9.14 806
9.16 767
9.18 756
9.2 782
9.22 756
9.24 795
9.26 761
9.28 739
9.3 793
9.32 801
9.34 790
9.36 781
9.38 716
9.4 779
9.42 738
9.44 754
9.46 744
9.48 745
9.5 718
9.52 766
9.54 730
9.56 744
9.58 732
9.6 744
9.62 744
9.64 779
9.66 692
9.68 766
9.7 732
9.72 744
9.74 770
9.76 763
9.78 760
9.8 746
9.82 747
9.84 749
9.86 765
9.88 665
9.9 751
9.92 682
9.94 741
9.96 696
9.98 724
10 738
10.02 730
10.04 775
10.06 754
10.08 743
10.1 771
10.12 776
10.14 698
10.16 715
10.18 761
10.2 685
10.22 736
10.24 739
10.26 694
10.28 658
10.3 692
10.32 698
10.34 700
10.36 747
10.38 736
10.4 731
10.42 683
10.44 723
10.46 669
10.48 741
10.5 763
10.52 737
10.54 725
10.56 696
10.58 735
10.6 725
10.62 676
10.64 680
10.66 762
10.68 757
10.7 731
10.72 725
10.74 755
10.76 769
10.78 697
10.8 728
10.82 716
10.84 752
10.86 714
10.88 658
10.9 729
10.92 689
10.94 775
10.96 735
10.98 694
11 699
11.02 734
11.04 690
11.06 699
11.08 723
11.1 687
11.12 693
11.14 694
11.16 723
11.18 732
11.2 726
11.22 676
11.24 685
11.26 728
11.28 717
11.3 702
11.32 705
11.34 701
11.36 729
11.38 752
11.4 720
11.42 738
11.44 733
11.46 700
11.48 740
11.5 687
11.52 698
11.54 691
11.56 752
11.58 706
11.6 705
11.62 723
11.64 723
11.66 712
11.68 707
11.7 681
11.72 734
11.74 701
11.76 760
11.78 755
11.8 703
11.82 736
11.84 707
11.86 699
11.88 725
11.9 702
11.92 711
11.94 692
11.96 722
11.98 756
12 721
12.02 686
12.04 716
12.06 762
12.08 724
12.1 717
12.12 693
12.14 711
12.16 686
12.18 707
12.2 680
12.22 793
12.24 737
12.26 745
12.28 705
12.3 719
12.32 711
12.34 701
12.36 685
12.38 690
12.4 707
12.42 746
12.44 700
12.46 702
12.48 678
12.5 723
12.52 718
12.54 700
12.56 704
12.58 745
12.6 744
12.62 729
12.64 704
12.66 763
12.68 689
12.7 747
12.72 730
12.74 756
12.76 732
12.78 763
12.8 716
12.82 712
12.84 777
12.86 706
12.88 721
12.9 756
12.92 752
12.94 762
12.96 775
12.98 765
13 740
13.02 771
13.04 763
13.06 745
13.08 770
13.1 705
13.12 740
13.14 753
13.16 757
13.18 745
13.2 784
13.22 751
13.24 738
13.26 731
13.28 739
13.3 795
13.32 771
13.34 754
13.36 687
13.38 757
13.4 751
13.42 707
13.44 809
13.46 770
13.48 798
13.5 760
13.52 745
13.54 744
13.56 789
13.58 725
13.6 796
13.62 785
13.64 752
13.66 766
13.68 716
13.7 735
13.72 788
13.74 710
13.76 774
13.78 754
13.8 776
13.82 784
13.84 750
13.86 737
13.88 731
13.9 778
13.92 808
13.94 777
13.96 738
13.98 756
14 790
14.02 784
14.04 714
14.06 767
14.08 781
14.1 833
14.12 782
14.14 754
14.16 794
14.18 780
14.2 790
14.22 745
14.24 750
14.26 804
14.28 765
14.3 821
14.32 722
14.34 840
14.36 823
14.38 822
14.4 825
14.42 826
14.44 828
14.46 766
14.48 804
14.5 747
14.52 823
14.54 799
14.56 795
14.58 791
14.6 869
14.62 779
14.64 819
14.66 793
14.68 806
14.7 811
14.72 783
14.74 827
14.76 875
14.78 809
14.8 798
14.82 823
14.84 814
14.86 825
14.88 843
14.9 826
14.92 841
14.94 848
14.96 837
14.98 857
15 851
15.02 857
15.04 842
15.06 857
15.08 795
15.1 862
15.12 838
15.14 832
15.16 814
15.18 878
15.2 807
15.22 788
15.24 877
15.26 888
15.28 825
15.3 856
15.32 881
15.34 880
15.36 863
15.38 866
15.4 889
15.42 870
15.44 845
15.46 885
15.48 874
15.5 878
15.52 923
15.54 914
15.56 920
15.58 882
15.6 928
15.62 911
15.64 891
15.66 903
15.68 900
15.7 896
15.72 901
15.74 861
15.76 879
15.78 880
15.8 905
15.82 910
15.84 938
15.86 924
15.88 922
15.9 946
15.92 959
15.94 958
15.96 937
15.98 926
16 991
16.02 941
16.04 915
16.06 963
16.08 903
16.1 907
16.12 925
16.14 912
16.16 958
16.18 960
16.2 941
16.22 981
16.24 944
16.26 1001
16.28 976
16.3 991
16.32 945
16.34 989
16.36 969
16.38 922
16.4 958
16.42 974
16.44 998
16.46 993
16.48 1028
16.5 967
16.52 980
16.54 1032
16.56 956
16.58 1010
16.6 1107
16.62 978
16.64 1028
16.66 1051
16.68 1081
16.7 1108
16.72 1047
16.74 1095
16.76 1138
16.78 1175
16.8 1159
16.82 1220
16.84 1260
16.86 1382
16.88 1452
16.9 1565
16.92 1743
16.94 1897
16.96 2143
16.98 2309
17 2461
17.02 2457
17.04 2348
17.06 2033
17.08 1778
17.1 1561
17.12 1303
17.14 1287
17.16 1227
17.18 1148
17.2 1166
17.22 1115
17.24 1095
17.26 1146
17.28 1137
17.3 1098
17.32 1166
17.34 1100
17.36 1104
17.38 1143
17.4 1086
17.42 1100
17.44 1126
17.46 1107
17.48 1028
17.5 1084
17.52 1146
17.54 1147
17.56 1028
17.58 1128
17.6 1047
17.62 1087
17.64 1086
17.66 1153
17.68 1135
17.7 1107
17.72 1118
17.74 1090
17.76 1150
17.78 1136
17.8 1076
17.82 1141
17.84 1197
17.86 1160
17.88 1107
17.9 1161
17.92 1176
17.94 1119
17.96 1140
17.98 1191
18 1092
18.02 1130
18.04 1137
18.06 1141
18.08 1191
18.1 1148
18.12 1210
18.14 1148
18.16 1152
18.18 1163
18.2 1152
18.22 1198
18.24 1189
18.26 1192
18.28 1199
18.3 1172
18.32 1150
18.34 1196
18.36 1165
18.38 1214
18.4 1164
18.42 1300
18.44 1251
18.46 1226
18.48 1201
18.5 1250
18.52 1248
18.54 1266
18.56 1264
18.58 1229
18.6 1231
18.62 1190
18.64 1233
18.66 1234
18.68 1288
18.7 1282
18.72 1233
18.74 1228
18.76 1248
18.78 1246
18.8 1259
18.82 1251
18.84 1221
18.86 1278
18.88 1306
18.9 1291
18.92 1265
18.94 1289
18.96 1266
18.98 1282
19 1264
19.02 1270
19.04 1362
19.06 1272
19.08 1330
19.1 1250
19.12 1301
19.14 1283
19.16 1285
19.18 1292
19.2 1288
19.22 1329
19.24 1359
19.26 1361
19.28 1353
19.3 1331
19.32 1288
19.34 1389
19.36 1398
19.38 1364
19.4 1372
19.42 1392
19.44 1321
19.46 1329
19.48 1356
19.5 1351
19.52 1385
19.54 1380
19.56 1403
19.58 1383
19.6 1404
19.62 1393
19.64 1364
19.66 1342
19.68 1355
19.7 1454
19.72 1408
19.74 1435
19.76 1463
19.78 1429
19.8 1396
19.82 1396
19.84 1417
19.86 1447
19.88 1362
19.9 1448
19.92 1459
19.94 1503
19.96 1437
19.98 1423
20 1454