File: xrd-UiO-67/pxrddata/7-16.ASC
3 2137
3.02 2084
3.04 1887
3.06 1752
3.08 1663
3.1 1569
3.12 1523
3.14 1482
3.16 1536
3.18 1493
3.2 1484
3.22 1444
3.24 1380
3.26 1328
3.28 1355
3.3 1355
3.32 1376
3.34 1288
3.36 1352
3.38 1265
3.4 1299
3.42 1296
3.44 1358
3.46 1261
3.48 1248
3.5 1278
3.52 1254
3.54 1256
3.56 1239
3.58 1188
3.6 1206
3.62 1197
3.64 1160
3.66 1134
3.68 1079
3.7 1126
3.72 1104
3.74 1088
3.76 1089
3.78 1047
3.8 1042
3.82 1090
3.84 1003
3.86 1009
3.88 1016
3.9 975
3.92 949
3.94 965
3.96 1002
3.98 998
4 984
4.02 995
4.04 965
4.06 905
4.08 901
4.1 948
4.12 976
4.14 994
4.16 908
4.18 923
4.2 861
4.22 887
4.24 905
4.26 859
4.28 860
4.3 867
4.32 875
4.34 871
4.36 830
4.38 819
4.4 834
4.42 839
4.44 850
4.46 827
4.48 855
4.5 838
4.52 812
4.54 786
4.56 801
4.58 819
4.6 818
4.62 761
4.64 760
4.66 799
4.68 821
4.7 766
4.72 745
4.74 762
4.76 776
4.78 761
4.8 737
4.82 750
4.84 683
4.86 726
4.88 729
4.9 743
4.92 702
4.94 726
4.96 732
4.98 729
5 780
5.02 737
5.04 755
5.06 741
5.08 722
5.1 737
5.12 672
5.14 714
5.16 685
5.18 764
5.2 734
5.22 728
5.24 649
5.26 695
5.28 700
5.3 666
5.32 683
5.34 700
5.36 691
5.38 669
5.4 684
5.42 683
5.44 680
5.46 648
5.48 643
5.5 678
5.52 669
5.54 688
5.56 658
5.58 690
5.6 661
5.62 645
5.64 684
5.66 675
5.68 618
5.7 671
5.72 605
5.74 632
5.76 646
5.78 696
5.8 687
5.82 632
5.84 645
5.86 595
5.88 660
5.9 652
5.92 668
5.94 687
5.96 670
5.98 672
6 639
6.02 628
6.04 634
6.06 637
6.08 658
6.1 659
6.12 677
6.14 672
6.16 663
6.18 628
6.2 678
6.22 613
6.24 626
6.26 603
6.28 623
6.3 642
6.32 636
6.34 587
6.36 617
6.38 595
6.4 639
6.42 646
6.44 651
6.46 635
6.48 672
6.5 618
6.52 643
6.54 683
6.56 647
6.58 635
6.6 625
6.62 632
6.64 674
6.66 634
6.68 624
6.7 636
6.72 628
6.74 625
6.76 635
6.78 612
6.8 665
6.82 587
6.84 636
6.86 598
6.88 645
6.9 612
6.92 607
6.94 624
6.96 626
6.98 614
7 672
7.02 623
7.04 638
7.06 612
7.08 630
7.1 613
7.12 617
7.14 598
7.16 630
7.18 644
7.2 625
7.22 675
7.24 621
7.26 630
7.28 653
7.3 608
7.32 560
7.34 635
7.36 630
7.38 613
7.4 639
7.42 598
7.44 602
7.46 645
7.48 680
7.5 636
7.52 596
7.54 637
7.56 660
7.58 637
7.6 607
7.62 618
7.64 612
7.66 598
7.68 625
7.7 593
7.72 636
7.74 637
7.76 628
7.78 631
7.8 617
7.82 655
7.84 607
7.86 617
7.88 591
7.9 638
7.92 616
7.94 603
7.96 614
7.98 637
8 610
8.02 619
8.04 638
8.06 630
8.08 627
8.1 632
8.12 650
8.14 625
8.16 648
8.18 600
8.2 605
8.22 578
8.24 612
8.26 613
8.28 577
8.3 608
8.32 586
8.34 622
8.36 638
8.38 611
8.4 623
8.42 612
8.44 601
8.46 558
8.48 611
8.5 569
8.52 588
8.54 661
8.56 608
8.58 625
8.6 616
8.62 615
8.64 573
8.66 636
8.68 624
8.7 638
8.72 601
8.74 579
8.76 611
8.78 584
8.8 663
8.82 621
8.84 576
8.86 583
8.88 638
8.9 585
8.92 603
8.94 611
8.96 637
8.98 662
9 651
9.02 666
9.04 670
9.06 685
9.08 659
9.1 661
9.12 639
9.14 649
9.16 613
9.18 646
9.2 616
9.22 621
9.24 633
9.26 556
9.28 631
9.3 576
9.32 614
9.34 665
9.36 635
9.38 581
9.4 580
9.42 580
9.44 556
9.46 621
9.48 596
9.5 569
9.52 585
9.54 586
9.56 579
9.58 565
9.6 573
9.62 577
9.64 594
9.66 607
9.68 590
9.7 597
9.72 609
9.74 596
9.76 603
9.78 549
9.8 593
9.82 579
9.84 559
9.86 568
9.88 600
9.9 625
9.92 616
9.94 619
9.96 601
9.98 571
10 533
10.02 615
10.04 591
10.06 613
10.08 610
10.1 590
10.12 568
10.14 592
10.16 596
10.18 565
10.2 538
10.22 586
10.24 569
10.26 542
10.28 598
10.3 566
10.32 569
10.34 617
10.36 619
10.38 582
10.4 535
10.42 600
10.44 604
10.46 590
10.48 573
10.5 607
10.52 548
10.54 572
10.56 557
10.58 614
10.6 628
10.62 561
10.64 553
10.66 577
10.68 578
10.7 586
10.72 581
10.74 546
10.76 587
10.78 531
10.8 600
10.82 574
10.84 573
10.86 627
10.88 549
10.9 574
10.92 603
10.94 562
10.96 551
10.98 592
11 572
11.02 596
11.04 568
11.06 546
11.08 535
11.1 593
11.12 568
11.14 551
11.16 571
11.18 568
11.2 558
11.22 595
11.24 567
11.26 588
11.28 588
11.3 596
11.32 599
11.34 634
11.36 575
11.38 595
11.4 584
11.42 656
11.44 610
11.46 594
11.48 568
11.5 584
11.52 626
11.54 560
11.56 560
11.58 590
11.6 544
11.62 570
11.64 603
11.66 574
11.68 576
11.7 551
11.72 590
11.74 582
11.76 585
11.78 564
11.8 542
11.82 588
11.84 562
11.86 589
11.88 571
11.9 606
11.92 620
11.94 602
11.96 606
11.98 578
12 604
12.02 610
12.04 575
12.06 630
12.08 610
12.1 620
12.12 586
12.14 615
12.16 572
12.18 598
12.2 561
12.22 608
12.24 600
12.26 582
12.28 537
12.3 581
12.32 636
12.34 618
12.36 567
12.38 570
12.4 580
12.42 590
12.44 628
12.46 585
12.48 583
12.5 574
12.52 618
12.54 559
12.56 633
12.58 604
12.6 622
12.62 594
12.64 647
12.66 576
12.68 630
12.7 663
12.72 602
12.74 587
12.76 590
12.78 615
12.8 574
12.82 569
12.84 620
12.86 649
12.88 653
12.9 591
12.92 616
12.94 643
12.96 612
12.98 576
13 616
13.02 597
13.04 582
13.06 617
13.08 623
13.1 626
13.12 632
13.14 607
13.16 648
13.18 609
13.2 630
13.22 633
13.24 636
13.26 632
13.28 671
13.3 632
13.32 649
13.34 655
13.36 684
13.38 611
13.4 621
13.42 653
13.44 665
13.46 664
13.48 606
13.5 614
13.52 677
13.54 600
13.56 658
13.58 677
13.6 619
13.62 643
13.64 644
13.66 641
13.68 613
13.7 655
13.72 593
13.74 642
13.76 700
13.78 634
13.8 635
13.82 642
13.84 646
13.86 636
13.88 612
13.9 653
13.92 681
13.94 672
13.96 658
13.98 655
14 646
14.02 674
14.04 642
14.06 625
14.08 668
14.1 676
14.12 649
14.14 655
14.16 611
14.18 636
14.2 622
14.22 655
14.24 655
14.26 701
14.28 653
14.3 610
14.32 657
14.34 659
14.36 645
14.38 675
14.4 660
14.42 691
14.44 647
14.46 659
14.48 691
14.5 616
14.52 690
14.54 659
14.56 682
14.58 691
14.6 629
14.62 688
14.64 691
14.66 673
14.68 675
14.7 684
14.72 629
14.74 720
14.76 665
14.78 678
14.8 676
14.82 669
14.84 684
14.86 676
14.88 685
14.9 709
14.92 703
14.94 662
14.96 682
14.98 720
15 668
15.02 683
15.04 692
15.06 686
15.08 736
15.1 736
15.12 716
15.14 736
15.16 681
15.18 715
15.2 692
15.22 705
15.24 728
15.26 688
15.28 733
15.3 767
15.32 736
15.34 724
15.36 724
15.38 749
15.4 772
15.42 734
15.44 687
15.46 730
15.48 755
15.5 742
15.52 759
15.54 693
15.56 736
15.58 722
15.6 766
15.62 726
15.64 750
15.66 714
15.68 726
15.7 764
15.72 733
15.74 773
15.76 724
15.78 762
15.8 754
15.82 752
15.84 782
15.86 734
15.88 734
15.9 797
15.92 734
15.94 773
15.96 762
15.98 753
16 762
16.02 768
16.04 778
16.06 742
16.08 785
16.1 788
16.12 738
16.14 774
16.16 748
16.18 807
16.2 740
16.22 782
16.24 786
16.26 804
16.28 773
16.3 793
16.32 787
16.34 829
16.36 794
16.38 760
16.4 803
16.42 826
16.44 870
16.46 785
16.48 797
16.5 847
16.52 805
16.54 837
16.56 842
16.58 878
16.6 871
16.62 900
16.64 916
16.66 874
16.68 895
16.7 873
16.72 974
16.74 943
16.76 1012
16.78 1009
16.8 1045
16.82 1131
16.84 1127
16.86 1282
16.88 1368
16.9 1459
16.92 1704
16.94 1977
16.96 2039
16.98 2324
17 2488
17.02 2514
17.04 2461
17.06 2308
17.08 2008
17.1 1872
17.12 1603
17.14 1491
17.16 1394
17.18 1277
17.2 1217
17.22 1139
17.24 1051
17.26 1028
17.28 989
17.3 958
17.32 936
17.34 900
17.36 911
17.38 912
17.4 910
17.42 965
17.44 904
17.46 925
17.48 939
17.5 921
17.52 883
17.54 1000
17.56 944
17.58 937
17.6 929
17.62 902
17.64 919
17.66 993
17.68 912
17.7 875
17.72 933
17.74 970
17.76 914
17.78 918
17.8 904
17.82 932
17.84 969
17.86 960
17.88 930
17.9 939
17.92 973
17.94 885
17.96 943
17.98 973
18 968
18.02 973
18.04 951
18.06 968
18.08 957
18.1 963
18.12 951
18.14 962
18.16 1010
18.18 961
18.2 988
18.22 913
18.24 968
18.26 962
18.28 1024
18.3 984
18.32 985
18.34 966
18.36 968
18.38 1001
18.4 1009
18.42 997
18.44 1019
18.46 1033
18.48 955
18.5 1016
18.52 1019
18.54 1083
18.56 1012
18.58 1052
18.6 1073
18.62 1038
18.64 1022
18.66 1063
18.68 974
18.7 1076
18.72 1023
18.74 1078
18.76 1076
18.78 1035
18.8 1049
18.82 1035
18.84 1076
18.86 1041
18.88 1046
18.9 1093
18.92 1081
18.94 1041
18.96 1049
18.98 1051
19 1091
19.02 1094
19.04 1055
19.06 1124
19.08 1074
19.1 1062
19.12 1106
19.14 1102
19.16 1034
19.18 1046
19.2 1078
19.22 1087
19.24 1101
19.26 1101
19.28 1098
19.3 1129
19.32 1077
19.34 1102
19.36 1088
19.38 1070
19.4 1122
19.42 1075
19.44 1085
19.46 1087
19.48 1169
19.5 1147
19.52 1200
19.54 1124
19.56 1145
19.58 1092
19.6 1044
19.62 1151
19.64 1195
19.66 1163
19.68 1129
19.7 1159
19.72 1164
19.74 1139
19.76 1131
19.78 1171
19.8 1149
19.82 1119
19.84 1192
19.86 1186
19.88 1155
19.9 1140
19.92 1220
19.94 1184
19.96 1150
19.98 1128
20 1224