File: xrd-UiO-67/pxrddata/7-17.ASC
3 2075
3.02 1990
3.04 1825
3.06 1725
3.08 1609
3.1 1583
3.12 1515
3.14 1484
3.16 1460
3.18 1440
3.2 1430
3.22 1359
3.24 1432
3.26 1296
3.28 1344
3.3 1328
3.32 1376
3.34 1310
3.36 1324
3.38 1300
3.4 1274
3.42 1216
3.44 1217
3.46 1339
3.48 1216
3.5 1160
3.52 1231
3.54 1180
3.56 1195
3.58 1183
3.6 1162
3.62 1176
3.64 1127
3.66 1124
3.68 1156
3.7 1089
3.72 1151
3.74 1106
3.76 1020
3.78 1109
3.8 1086
3.82 1081
3.84 1043
3.86 1070
3.88 1051
3.9 1102
3.92 1051
3.94 1039
3.96 1052
3.98 997
4 1031
4.02 1013
4.04 951
4.06 1014
4.08 995
4.1 899
4.12 968
4.14 946
4.16 979
4.18 976
4.2 978
4.22 909
4.24 924
4.26 976
4.28 985
4.3 907
4.32 924
4.34 930
4.36 874
4.38 932
4.4 943
4.42 836
4.44 861
4.46 889
4.48 911
4.5 881
4.52 900
4.54 921
4.56 856
4.58 922
4.6 855
4.62 861
4.64 832
4.66 861
4.68 874
4.7 842
4.72 817
4.74 854
4.76 881
4.78 885
4.8 893
4.82 919
4.84 905
4.86 854
4.88 871
4.9 865
4.92 876
4.94 878
4.96 917
4.98 919
5 915
5.02 895
5.04 932
5.06 894
5.08 913
5.1 919
5.12 954
5.14 943
5.16 882
5.18 920
5.2 972
5.22 1034
5.24 1011
5.26 1002
5.28 992
5.3 1020
5.32 958
5.34 984
5.36 967
5.38 1049
5.4 1066
5.42 1069
5.44 1071
5.46 1066
5.48 1094
5.5 1129
5.52 1104
5.54 1062
5.56 1085
5.58 1147
5.6 1091
5.62 1140
5.64 1114
5.66 1105
5.68 1164
5.7 1142
5.72 1115
5.74 1216
5.76 1143
5.78 1157
5.8 1108
5.82 1101
5.84 1103
5.86 1083
5.88 1053
5.9 1157
5.92 1076
5.94 976
5.96 1014
5.98 955
6 933
6.02 952
6.04 992
6.06 921
6.08 945
6.1 872
6.12 856
6.14 847
6.16 827
6.18 809
6.2 815
6.22 823
6.24 799
6.26 800
6.28 779
6.3 792
6.32 750
6.34 722
6.36 757
6.38 708
6.4 718
6.42 717
6.44 704
6.46 738
6.48 717
6.5 772
6.52 681
6.54 686
6.56 665
6.58 664
6.6 652
6.62 705
6.64 666
6.66 702
6.68 680
6.7 626
6.72 681
6.74 660
6.76 682
6.78 660
6.8 657
6.82 649
6.84 669
6.86 634
6.88 636
6.9 637
6.92 645
6.94 607
6.96 637
6.98 662
7 599
7.02 613
7.04 601
7.06 591
7.08 575
7.1 599
7.12 586
7.14 600
7.16 591
7.18 586
7.2 585
7.22 569
7.24 582
7.26 601
7.28 586
7.3 605
7.32 541
7.34 596
7.36 560
7.38 599
7.4 576
7.42 599
7.44 601
7.46 550
7.48 603
7.5 585
7.52 573
7.54 581
7.56 564
7.58 585
7.6 565
7.62 592
7.64 530
7.66 565
7.68 585
7.7 530
7.72 572
7.74 581
7.76 538
7.78 562
7.8 593
7.82 544
7.84 505
7.86 534
7.88 538
7.9 566
7.92 524
7.94 571
7.96 498
7.98 548
8 578
8.02 540
8.04 548
8.06 575
8.08 510
8.1 538
8.12 569
8.14 535
8.16 559
8.18 542
8.2 539
8.22 523
8.24 567
8.26 549
8.28 535
8.3 541
8.32 549
8.34 542
8.36 531
8.38 522
8.4 560
8.42 556
8.44 576
8.46 550
8.48 530
8.5 559
8.52 556
8.54 543
8.56 529
8.58 566
8.6 566
8.62 587
8.64 547
8.66 544
8.68 534
8.7 508
8.72 566
8.74 522
8.76 561
8.78 503
8.8 534
8.82 531
8.84 550
8.86 585
8.88 571
8.9 585
8.92 535
8.94 547
8.96 609
8.98 583
9 574
9.02 621
9.04 561
9.06 533
9.08 617
9.1 574
9.12 580
9.14 591
9.16 594
9.18 578
9.2 572
9.22 557
9.24 583
9.26 608
9.28 588
9.3 665
9.32 615
9.34 545
9.36 623
9.38 633
9.4 619
9.42 610
9.44 560
9.46 561
9.48 602
9.5 597
9.52 596
9.54 575
9.56 599
9.58 609
9.6 550
9.62 598
9.64 592
9.66 555
9.68 577
9.7 599
9.72 527
9.74 536
9.76 525
9.78 573
9.8 578
9.82 544
9.84 567
9.86 558
9.88 560
9.9 535
9.92 505
9.94 509
9.96 497
9.98 535
10 564
10.02 545
10.04 500
10.06 589
10.08 529
10.1 529
10.12 577
10.14 555
10.16 542
10.18 503
10.2 549
10.22 548
10.24 607
10.26 563
10.28 550
10.3 517
10.32 493
10.34 526
10.36 541
10.38 522
10.4 558
10.42 530
10.44 506
10.46 514
10.48 517
10.5 488
10.52 516
10.54 515
10.56 526
10.58 510
10.6 535
10.62 571
10.64 505
10.66 519
10.68 513
10.7 519
10.72 513
10.74 549
10.76 514
10.78 528
10.8 475
10.82 580
10.84 561
10.86 528
10.88 537
10.9 569
10.92 517
10.94 543
10.96 526
10.98 563
11 540
11.02 567
11.04 566
11.06 519
11.08 563
11.1 554
11.12 554
11.14 536
11.16 537
11.18 548
11.2 503
11.22 565
11.24 539
11.26 551
11.28 521
11.3 519
11.32 528
11.34 541
11.36 519
11.38 533
11.4 511
11.42 508
11.44 534
11.46 521
11.48 470
11.5 501
11.52 522
11.54 504
11.56 493
11.58 516
11.6 496
11.62 494
11.64 510
11.66 496
11.68 517
11.7 497
11.72 539
11.74 496
11.76 515
11.78 512
11.8 476
11.82 465
11.84 473
11.86 474
11.88 480
11.9 494
11.92 525
11.94 492
11.96 484
11.98 491
12 470
12.02 504
12.04 498
12.06 484
12.08 454
12.1 471
12.12 446
12.14 505
12.16 503
12.18 488
12.2 502
12.22 475
12.24 455
12.26 487
12.28 495
12.3 475
12.32 494
12.34 506
12.36 487
12.38 507
12.4 462
12.42 479
12.44 460
12.46 499
12.48 484
12.5 437
12.52 445
12.54 469
12.56 463
12.58 454
12.6 461
12.62 499
12.64 502
12.66 450
12.68 501
12.7 486
12.72 501
12.74 485
12.76 492
12.78 503
12.8 471
12.82 444
12.84 472
12.86 484
12.88 476
12.9 494
12.92 500
12.94 482
12.96 490
12.98 481
13 470
13.02 467
13.04 478
13.06 492
13.08 452
13.1 467
13.12 513
13.14 472
13.16 446
13.18 485
13.2 511
13.22 507
13.24 477
13.26 486
13.28 537
13.3 495
13.32 476
13.34 488
13.36 498
13.38 509
13.4 496
13.42 544
13.44 500
13.46 521
13.48 475
13.5 470
13.52 520
13.54 494
13.56 480
13.58 497
13.6 465
13.62 489
13.64 503
13.66 507
13.68 511
13.7 500
13.72 516
13.74 460
13.76 447
13.78 464
13.8 509
13.82 507
13.84 530
13.86 529
13.88 530
13.9 498
13.92 493
13.94 502
13.96 535
13.98 471
14 507
14.02 495
14.04 527
14.06 463
14.08 500
14.1 517
14.12 507
14.14 484
14.16 544
14.18 518
14.2 526
14.22 521
14.24 521
14.26 470
14.28 495
14.3 482
14.32 507
14.34 512
14.36 494
14.38 514
14.4 501
14.42 510
14.44 509
14.46 531
14.48 511
14.5 496
14.52 534
14.54 498
14.56 559
14.58 510
14.6 564
14.62 519
14.64 523
14.66 527
14.68 529
14.7 555
14.72 534
14.74 532
14.76 551
14.78 511
14.8 502
14.82 572
14.84 539
14.86 547
14.88 562
14.9 548
14.92 552
14.94 590
14.96 539
14.98 540
15 507
15.02 560
15.04 549
15.06 563
15.08 583
15.1 490
15.12 530
15.14 537
15.16 525
15.18 529
15.2 586
15.22 565
15.24 582
15.26 546
15.28 593
15.3 550
15.32 542
15.34 550
15.36 554
15.38 547
15.4 588
15.42 559
15.44 523
15.46 572
15.48 553
15.5 548
15.52 574
15.54 565
15.56 548
15.58 566
15.6 552
15.62 574
15.64 574
15.66 553
15.68 557
15.7 574
15.72 566
15.74 582
15.76 586
15.78 539
15.8 588
15.82 564
15.84 631
15.86 586
15.88 610
15.9 565
15.92 605
15.94 587
15.96 618
15.98 576
16 557
16.02 568
16.04 551
16.06 608
16.08 597
16.1 577
16.12 593
16.14 594
16.16 623
16.18 572
16.2 583
16.22 602
16.24 608
16.26 614
16.28 629
16.3 611
16.32 594
16.34 601
16.36 615
16.38 663
16.4 582
16.42 658
16.44 629
16.46 605
16.48 635
16.5 616
16.52 579
16.54 611
16.56 649
16.58 620
16.6 640
16.62 684
16.64 584
16.66 633
16.68 622
16.7 688
16.72 654
16.74 715
16.76 634
16.78 624
16.8 658
16.82 632
16.84 653
16.86 656
16.88 690
16.9 679
16.92 673
16.94 724
16.96 738
16.98 779
17 827
17.02 879
17.04 915
17.06 917
17.08 980
17.1 1066
17.12 1129
17.14 1152
17.16 1167
17.18 1114
17.2 1020
17.22 943
17.24 838
17.26 754
17.28 712
17.3 681
17.32 693
17.34 679
17.36 752
17.38 715
17.4 684
17.42 674
17.44 664
17.46 732
17.48 696
17.5 714
17.52 675
17.54 715
17.56 665
17.58 731
17.6 698
17.62 694
17.64 730
17.66 748
17.68 636
17.7 696
17.72 676
17.74 692
17.76 688
17.78 724
17.8 744
17.82 727
17.84 740
17.86 708
17.88 738
17.9 704
17.92 689
17.94 734
17.96 711
17.98 726
18 703
18.02 720
18.04 735
18.06 735
18.08 731
18.1 723
18.12 758
18.14 742
18.16 695
18.18 721
18.2 722
18.22 758
18.24 776
18.26 762
18.28 744
18.3 726
18.32 749
18.34 753
18.36 721
18.38 772
18.4 732
18.42 748
18.44 762
18.46 736
18.48 734
18.5 797
18.52 819
18.54 797
18.56 815
18.58 806
18.6 790
18.62 796
18.64 771
18.66 765
18.68 801
18.7 791
18.72 778
18.74 817
18.76 811
18.78 784
18.8 819
18.82 776
18.84 841
18.86 793
18.88 812
18.9 808
18.92 860
18.94 806
18.96 808
18.98 843
19 837
19.02 885
19.04 857
19.06 822
19.08 848
19.1 829
19.12 804
19.14 849
19.16 847
19.18 826
19.2 811
19.22 876
19.24 845
19.26 864
19.28 876
19.3 911
19.32 866
19.34 897
19.36 807
19.38 914
19.4 847
19.42 921
19.44 858
19.46 895
19.48 853
19.5 906
19.52 902
19.54 924
19.56 910
19.58 911
19.6 890
19.62 902
19.64 930
19.66 900
19.68 896
19.7 897
19.72 869
19.74 930
19.76 943
19.78 922
19.8 898
19.82 881
19.84 924
19.86 941
19.88 903
19.9 908
19.92 872
19.94 845
19.96 887
19.98 959
20 920