File: xrd-UiO-67/pxrddata/7-18.ASC
3 2467
3.02 2242
3.04 2281
3.06 2045
3.08 1973
3.1 1912
3.12 1865
3.14 1829
3.16 1854
3.18 1781
3.2 1795
3.22 1783
3.24 1775
3.26 1743
3.28 1762
3.3 1721
3.32 1766
3.34 1632
3.36 1745
3.38 1744
3.4 1716
3.42 1622
3.44 1620
3.46 1685
3.48 1631
3.5 1578
3.52 1602
3.54 1509
3.56 1594
3.58 1539
3.6 1581
3.62 1573
3.64 1501
3.66 1563
3.68 1447
3.7 1491
3.72 1421
3.74 1432
3.76 1428
3.78 1433
3.8 1399
3.82 1432
3.84 1401
3.86 1371
3.88 1414
3.9 1356
3.92 1392
3.94 1298
3.96 1382
3.98 1415
4 1401
4.02 1347
4.04 1303
4.06 1310
4.08 1319
4.1 1268
4.12 1332
4.14 1251
4.16 1232
4.18 1281
4.2 1253
4.22 1240
4.24 1199
4.26 1180
4.28 1175
4.3 1161
4.32 1178
4.34 1116
4.36 1148
4.38 1148
4.4 1217
4.42 1207
4.44 1171
4.46 1173
4.48 1181
4.5 1129
4.52 1155
4.54 1106
4.56 1123
4.58 1097
4.6 1154
4.62 1124
4.64 1068
4.66 1038
4.68 1140
4.7 1108
4.72 1119
4.74 1085
4.76 1110
4.78 1081
4.8 1052
4.82 1056
4.84 1087
4.86 1022
4.88 1051
4.9 1139
4.92 1019
4.94 992
4.96 1024
4.98 955
5 1005
5.02 983
5.04 1072
5.06 1030
5.08 976
5.1 1044
5.12 984
5.14 984
5.16 1021
5.18 970
5.2 964
5.22 989
5.24 1018
5.26 1035
5.28 963
5.3 1025
5.32 1011
5.34 996
5.36 957
5.38 1001
5.4 948
5.42 1026
5.44 1001
5.46 980
5.48 1003
5.5 957
5.52 963
5.54 991
5.56 986
5.58 942
5.6 933
5.62 950
5.64 966
5.66 973
5.68 951
5.7 971
5.72 948
5.74 960
5.76 919
5.78 927
5.8 952
5.82 957
5.84 953
5.86 976
5.88 924
5.9 970
5.92 926
5.94 996
5.96 975
5.98 936
6 957
6.02 944
6.04 927
6.06 923
6.08 905
6.1 980
6.12 891
6.14 908
6.16 934
6.18 924
6.2 957
6.22 980
6.24 949
6.26 924
6.28 927
6.3 892
6.32 901
6.34 938
6.36 965
6.38 907
6.4 925
6.42 890
6.44 901
6.46 925
6.48 935
6.5 956
6.52 886
6.54 939
6.56 931
6.58 890
6.6 896
6.62 910
6.64 896
6.66 915
6.68 918
6.7 978
6.72 915
6.74 901
6.76 911
6.78 887
6.8 913
6.82 896
6.84 906
6.86 922
6.88 863
6.9 931
6.92 889
6.94 961
6.96 939
6.98 855
7 930
7.02 911
7.04 935
7.06 933
7.08 898
7.1 851
7.12 883
7.14 902
7.16 899
7.18 946
7.2 880
7.22 880
7.24 875
7.26 853
7.28 868
7.3 919
7.32 882
7.34 898
7.36 901
7.38 958
7.4 868
7.42 915
7.44 877
7.46 867
7.48 934
7.5 857
7.52 859
7.54 927
7.56 894
7.58 895
7.6 888
7.62 894
7.64 943
7.66 907
7.68 897
7.7 944
7.72 901
7.74 889
7.76 833
7.78 934
7.8 934
7.82 839
7.84 898
7.86 918
7.88 877
7.9 880
7.92 898
7.94 859
7.96 920
7.98 890
8 906
8.02 915
8.04 900
8.06 907
8.08 891
8.1 880
8.12 866
8.14 882
8.16 853
8.18 862
8.2 880
8.22 828
8.24 850
8.26 892
8.28 882
8.3 899
8.32 881
8.34 860
8.36 903
8.38 894
8.4 869
8.42 886
8.44 805
8.46 881
8.48 907
8.5 879
8.52 841
8.54 836
8.56 862
8.58 875
8.6 901
8.62 856
8.64 886
8.66 932
8.68 866
8.7 821
8.72 815
8.74 901
8.76 840
8.78 822
8.8 849
8.82 845
8.84 833
8.86 933
8.88 840
8.9 812
8.92 846
8.94 880
8.96 858
8.98 858
9 807
9.02 866
9.04 879
9.06 882
9.08 915
9.1 867
9.12 848
9.14 860
9.16 817
9.18 862
9.2 856
9.22 798
9.24 836
9.26 825
9.28 835
9.3 822
9.32 843
9.34 789
9.36 791
9.38 802
9.4 847
9.42 810
9.44 838
9.46 769
9.48 864
9.5 794
9.52 867
9.54 837
9.56 810
9.58 844
9.6 827
9.62 840
9.64 861
9.66 850
9.68 817
9.7 829
9.72 831
9.74 845
9.76 861
9.78 860
9.8 811
9.82 873
9.84 802
9.86 805
9.88 803
9.9 787
9.92 843
9.94 808
9.96 819
9.98 861
10 763
10.02 821
10.04 811
10.06 816
10.08 857
10.1 868
10.12 821
10.14 831
10.16 788
10.18 829
10.2 807
10.22 817
10.24 771
10.26 800
10.28 812
10.3 784
10.32 756
10.34 775
10.36 822
10.38 809
10.4 779
10.42 812
10.44 785
10.46 842
10.48 813
10.5 791
10.52 809
10.54 770
10.56 777
10.58 813
10.6 801
10.62 765
10.64 801
10.66 818
10.68 821
10.7 745
10.72 753
10.74 800
10.76 790
10.78 781
10.8 771
10.82 850
10.84 815
10.86 770
10.88 850
10.9 833
10.92 757
10.94 805
10.96 773
10.98 805
11 823
11.02 787
11.04 809
11.06 772
11.08 782
11.1 766
11.12 769
11.14 786
11.16 796
11.18 776
11.2 771
11.22 805
11.24 808
11.26 844
11.28 797
11.3 818
11.32 839
11.34 809
11.36 765
11.38 761
11.4 794
11.42 799
11.44 783
11.46 760
11.48 801
11.5 833
11.52 732
11.54 872
11.56 745
11.58 758
11.6 810
11.62 782
11.64 781
11.66 772
11.68 774
11.7 778
11.72 803
11.74 810
11.76 748
11.78 790
11.8 825
11.82 789
11.84 811
11.86 739
11.88 780
11.9 816
11.92 848
11.94 816
11.96 819
11.98 749
12 779
12.02 809
12.04 744
12.06 759
12.08 788
12.1 772
12.12 780
12.14 834
12.16 786
12.18 760
12.2 760
12.22 805
12.24 817
12.26 810
12.28 780
12.3 832
12.32 845
12.34 778
12.36 804
12.38 773
12.4 757
12.42 774
12.44 786
12.46 783
12.48 814
12.5 779
12.52 856
12.54 777
12.56 768
12.58 803
12.6 749
12.62 794
12.64 796
12.66 754
12.68 810
12.7 785
12.72 794
12.74 824
12.76 827
12.78 815
12.8 840
12.82 782
12.84 844
12.86 829
12.88 782
12.9 798
12.92 793
12.94 810
12.96 805
12.98 800
13 796
13.02 864
13.04 850
13.06 813
13.08 812
13.1 841
13.12 819
13.14 833
13.16 800
13.18 784
13.2 831
13.22 805
13.24 862
13.26 840
13.28 870
13.3 896
13.32 890
13.34 841
13.36 801
13.38 851
13.4 818
13.42 786
13.44 853
13.46 840
13.48 812
13.5 837
13.52 803
13.54 808
13.56 884
13.58 811
13.6 783
13.62 821
13.64 826
13.66 791
13.68 892
13.7 827
13.72 859
13.74 782
13.76 838
13.78 813
13.8 788
13.82 844
13.84 820
13.86 854
13.88 832
13.9 818
13.92 856
13.94 883
13.96 851
13.98 832
14 834
14.02 867
14.04 820
14.06 826
14.08 825
14.1 856
14.12 773
14.14 858
14.16 812
14.18 827
14.2 876
14.22 847
14.24 871
14.26 872
14.28 849
14.3 863
14.32 887
14.34 857
14.36 871
14.38 867
14.4 833
14.42 821
14.44 815
14.46 864
14.48 853
14.5 900
14.52 889
14.54 852
14.56 885
14.58 894
14.6 844
14.62 855
14.64 843
14.66 884
14.68 888
14.7 879
14.72 822
14.74 883
14.76 852
14.78 899
14.8 932
14.82 914
14.84 886
14.86 873
14.88 887
14.9 873
14.92 886
14.94 864
14.96 896
14.98 891
15 901
15.02 874
15.04 864
15.06 896
15.08 880
15.1 891
15.12 884
15.14 864
15.16 859
15.18 884
15.2 895
15.22 885
15.24 861
15.26 933
15.28 929
15.3 944
15.32 1006
15.34 925
15.36 908
15.38 940
15.4 928
15.42 916
15.44 897
15.46 914
15.48 933
15.5 940
15.52 934
15.54 882
15.56 923
15.58 915
15.6 938
15.62 929
15.64 902
15.66 949
15.68 942
15.7 894
15.72 919
15.74 896
15.76 909
15.78 917
15.8 999
15.82 941
15.84 936
15.86 967
15.88 989
15.9 996
15.92 947
15.94 954
15.96 990
15.98 936
16 1008
16.02 942
16.04 982
16.06 965
16.08 966
16.1 934
16.12 940
16.14 976
16.16 944
16.18 987
16.2 951
16.22 974
16.24 1023
16.26 1015
16.28 912
16.3 967
16.32 979
16.34 1026
16.36 1009
16.38 965
16.4 1035
16.42 1005
16.44 1023
16.46 1016
16.48 1013
16.5 1016
16.52 1018
16.54 1043
16.56 987
16.58 1020
16.6 1070
16.62 1089
16.64 1092
16.66 1067
16.68 1144
16.7 1118
16.72 1156
16.74 1188
16.76 1186
16.78 1242
16.8 1260
16.82 1381
16.84 1385
16.86 1470
16.88 1617
16.9 1714
16.92 1947
16.94 2036
16.96 2274
16.98 2499
17 2609
17.02 2655
17.04 2374
17.06 2166
17.08 1941
17.1 1705
17.12 1581
17.14 1423
17.16 1349
17.18 1283
17.2 1221
17.22 1180
17.24 1141
17.26 1176
17.28 1162
17.3 1058
17.32 1115
17.34 1124
17.36 1153
17.38 1143
17.4 1104
17.42 1116
17.44 1184
17.46 1120
17.48 1125
17.5 1092
17.52 1050
17.54 1076
17.56 1146
17.58 1145
17.6 1070
17.62 1143
17.64 1124
17.66 1109
17.68 1148
17.7 1205
17.72 1172
17.74 1132
17.76 1143
17.78 1116
17.8 1176
17.82 1222
17.84 1172
17.86 1155
17.88 1190
17.9 1142
17.92 1214
17.94 1247
17.96 1193
17.98 1263
18 1264
18.02 1240
18.04 1175
18.06 1193
18.08 1182
18.1 1224
18.12 1156
18.14 1178
18.16 1212
18.18 1214
18.2 1225
18.22 1200
18.24 1175
18.26 1257
18.28 1204
18.3 1233
18.32 1283
18.34 1220
18.36 1221
18.38 1191
18.4 1287
18.42 1282
18.44 1245
18.46 1258
18.48 1290
18.5 1198
18.52 1218
18.54 1294
18.56 1360
18.58 1286
18.6 1283
18.62 1296
18.64 1270
18.66 1291
18.68 1300
18.7 1284
18.72 1344
18.74 1309
18.76 1353
18.78 1386
18.8 1279
18.82 1290
18.84 1313
18.86 1394
18.88 1296
18.9 1338
18.92 1306
18.94 1359
18.96 1343
18.98 1301
19 1338
19.02 1303
19.04 1319
19.06 1301
19.08 1328
19.1 1370
19.12 1355
19.14 1269
19.16 1421
19.18 1351
19.2 1347
19.22 1392
19.24 1305
19.26 1367
19.28 1315
19.3 1355
19.32 1418
19.34 1362
19.36 1376
19.38 1340
19.4 1428
19.42 1362
19.44 1399
19.46 1448
19.48 1382
19.5 1364
19.52 1440
19.54 1411
19.56 1462
19.58 1412
19.6 1469
19.62 1472
19.64 1487
19.66 1393
19.68 1436
19.7 1420
19.72 1439
19.74 1477
19.76 1495
19.78 1472
19.8 1489
19.82 1482
19.84 1474
19.86 1482
19.88 1473
19.9 1555
19.92 1561
19.94 1521
19.96 1518
19.98 1521
20 1480