File: xrd-UiO-67/pxrddata/7-2.ASC
3 2033
3.02 1957
3.04 1725
3.06 1594
3.08 1488
3.1 1517
3.12 1387
3.14 1387
3.16 1391
3.18 1383
3.2 1372
3.22 1316
3.24 1283
3.26 1315
3.28 1270
3.3 1279
3.32 1240
3.34 1312
3.36 1260
3.38 1292
3.4 1230
3.42 1267
3.44 1198
3.46 1186
3.48 1176
3.5 1153
3.52 1169
3.54 1121
3.56 1167
3.58 1168
3.6 1127
3.62 1181
3.64 1124
3.66 1138
3.68 1089
3.7 1163
3.72 1092
3.74 1083
3.76 1072
3.78 1075
3.8 1119
3.82 1068
3.84 997
3.86 1059
3.88 1046
3.9 1014
3.92 998
3.94 958
3.96 947
3.98 980
4 926
4.02 956
4.04 999
4.06 955
4.08 968
4.1 889
4.12 947
4.14 916
4.16 942
4.18 958
4.2 891
4.22 915
4.24 906
4.26 896
4.28 818
4.3 841
4.32 874
4.34 930
4.36 893
4.38 901
4.4 896
4.42 868
4.44 886
4.46 849
4.48 854
4.5 868
4.52 797
4.54 784
4.56 795
4.58 850
4.6 814
4.62 819
4.64 843
4.66 774
4.68 825
4.7 861
4.72 817
4.74 776
4.76 810
4.78 824
4.8 788
4.82 792
4.84 798
4.86 785
4.88 772
4.9 759
4.92 800
4.94 787
4.96 759
4.98 772
5 785
5.02 783
5.04 775
5.06 779
5.08 699
5.1 717
5.12 798
5.14 786
5.16 775
5.18 736
5.2 792
5.22 772
5.24 765
5.26 719
5.28 768
5.3 746
5.32 714
5.34 771
5.36 769
5.38 700
5.4 711
5.42 727
5.44 748
5.46 739
5.48 701
5.5 678
5.52 752
5.54 744
5.56 706
5.58 731
5.6 729
5.62 759
5.64 748
5.66 715
5.68 714
5.7 712
5.72 697
5.74 744
5.76 744
5.78 724
5.8 726
5.82 729
5.84 737
5.86 692
5.88 759
5.9 697
5.92 740
5.94 662
5.96 708
5.98 697
6 719
6.02 701
6.04 697
6.06 740
6.08 692
6.1 693
6.12 707
6.14 743
6.16 727
6.18 698
6.2 751
6.22 768
6.24 675
6.26 708
6.28 762
6.3 675
6.32 719
6.34 713
6.36 733
6.38 752
6.4 702
6.42 716
6.44 723
6.46 727
6.48 723
6.5 731
6.52 667
6.54 776
6.56 734
6.58 689
6.6 721
6.62 740
6.64 742
6.66 732
6.68 730
6.7 710
6.72 728
6.74 683
6.76 719
6.78 656
6.8 719
6.82 715
6.84 673
6.86 715
6.88 728
6.9 707
6.92 726
6.94 727
6.96 725
6.98 691
7 722
7.02 666
7.04 654
7.06 690
7.08 737
7.1 668
7.12 719
7.14 685
7.16 700
7.18 646
7.2 685
7.22 724
7.24 712
7.26 659
7.28 676
7.3 676
7.32 700
7.34 700
7.36 644
7.38 724
7.4 700
7.42 658
7.44 670
7.46 665
7.48 658
7.5 653
7.52 654
7.54 674
7.56 684
7.58 668
7.6 655
7.62 659
7.64 692
7.66 649
7.68 643
7.7 686
7.72 697
7.74 660
7.76 675
7.78 694
7.8 662
7.82 730
7.84 680
7.86 668
7.88 640
7.9 647
7.92 637
7.94 658
7.96 664
7.98 673
8 686
8.02 640
8.04 655
8.06 666
8.08 662
8.1 659
8.12 674
8.14 625
8.16 677
8.18 656
8.2 617
8.22 667
8.24 629
8.26 612
8.28 663
8.3 678
8.32 651
8.34 681
8.36 701
8.38 636
8.4 655
8.42 676
8.44 663
8.46 652
8.48 663
8.5 677
8.52 621
8.54 628
8.56 645
8.58 676
8.6 673
8.62 630
8.64 656
8.66 585
8.68 627
8.7 614
8.72 645
8.74 623
8.76 659
8.78 614
8.8 660
8.82 646
8.84 622
8.86 634
8.88 617
8.9 652
8.92 605
8.94 621
8.96 650
8.98 628
9 648
9.02 637
9.04 639
9.06 646
9.08 611
9.1 636
9.12 611
9.14 626
9.16 599
9.18 623
9.2 619
9.22 615
9.24 591
9.26 619
9.28 611
9.3 669
9.32 610
9.34 593
9.36 615
9.38 623
9.4 570
9.42 637
9.44 601
9.46 642
9.48 626
9.5 636
9.52 625
9.54 622
9.56 600
9.58 596
9.6 625
9.62 638
9.64 624
9.66 631
9.68 654
9.7 655
9.72 602
9.74 617
9.76 631
9.78 608
9.8 562
9.82 601
9.84 562
9.86 629
9.88 623
9.9 636
9.92 612
9.94 633
9.96 615
9.98 652
10 610
10.02 633
10.04 607
10.06 586
10.08 659
10.1 607
10.12 618
10.14 600
10.16 633
10.18 624
10.2 586
10.22 603
10.24 607
10.26 606
10.28 633
10.3 630
10.32 602
10.34 623
10.36 601
10.38 611
10.4 590
10.42 641
10.44 620
10.46 593
10.48 602
10.5 604
10.52 613
10.54 612
10.56 579
10.58 650
10.6 629
10.62 588
10.64 577
10.66 625
10.68 599
10.7 608
10.72 634
10.74 604
10.76 621
10.78 617
10.8 642
10.82 644
10.84 643
10.86 611
10.88 621
10.9 610
10.92 597
10.94 607
10.96 661
10.98 639
11 605
11.02 578
11.04 662
11.06 596
11.08 592
11.1 584
11.12 589
11.14 618
11.16 643
11.18 608
11.2 594
11.22 609
11.24 589
11.26 604
11.28 560
11.3 599
11.32 608
11.34 611
11.36 627
11.38 562
11.4 603
11.42 623
11.44 595
11.46 606
11.48 562
11.5 629
11.52 573
11.54 627
11.56 611
11.58 578
11.6 583
11.62 579
11.64 577
11.66 588
11.68 616
11.7 584
11.72 595
11.74 619
11.76 600
11.78 624
11.8 679
11.82 602
11.84 596
11.86 619
11.88 608
11.9 664
11.92 609
11.94 616
11.96 583
11.98 588
12 607
12.02 594
12.04 580
12.06 579
12.08 621
12.1 589
12.12 623
12.14 551
12.16 610
12.18 605
12.2 595
12.22 612
12.24 607
12.26 600
12.28 612
12.3 629
12.32 581
12.34 601
12.36 628
12.38 598
12.4 623
12.42 610
12.44 592
12.46 582
12.48 620
12.5 577
12.52 619
12.54 614
12.56 561
12.58 601
12.6 630
12.62 608
12.64 568
12.66 619
12.68 608
12.7 599
12.72 639
12.74 594
12.76 593
12.78 604
12.8 597
12.82 614
12.84 596
12.86 593
12.88 641
12.9 599
12.92 621
12.94 609
12.96 622
12.98 622
13 629
13.02 647
13.04 642
13.06 600
13.08 643
13.1 628
13.12 609
13.14 579
13.16 615
13.18 642
13.2 653
13.22 644
13.24 611
13.26 648
13.28 649
13.3 577
13.32 609
13.34 606
13.36 620
13.38 609
13.4 634
13.42 575
13.44 618
13.46 678
13.48 626
13.5 668
13.52 587
13.54 627
13.56 636
13.58 631
13.6 648
13.62 660
13.64 667
13.66 627
13.68 673
13.7 628
13.72 644
13.74 644
13.76 669
13.78 649
13.8 610
13.82 642
13.84 613
13.86 632
13.88 664
13.9 641
13.92 612
13.94 710
13.96 633
13.98 575
14 638
14.02 598
14.04 641
14.06 650
14.08 639
14.1 646
14.12 640
14.14 672
14.16 626
14.18 638
14.2 652
14.22 656
14.24 657
14.26 668
14.28 629
14.3 668
14.32 667
14.34 674
14.36 703
14.38 660
14.4 666
14.42 630
14.44 671
14.46 696
14.48 685
14.5 677
14.52 638
14.54 663
14.56 691
14.58 668
14.6 640
14.62 714
14.64 706
14.66 644
14.68 642
14.7 660
14.72 676
14.74 653
14.76 699
14.78 673
14.8 654
14.82 717
14.84 699
14.86 672
14.88 664
14.9 715
14.92 674
14.94 710
14.96 717
14.98 714
15 723
15.02 782
15.04 719
15.06 667
15.08 722
15.1 731
15.12 727
15.14 719
15.16 718
15.18 727
15.2 695
15.22 699
15.24 679
15.26 707
15.28 703
15.3 714
15.32 718
15.34 703
15.36 738
15.38 722
15.4 690
15.42 742
15.44 709
15.46 767
15.48 690
15.5 724
15.52 758
15.54 760
15.56 762
15.58 767
15.6 743
15.62 772
15.64 713
15.66 786
15.68 745
15.7 765
15.72 801
15.74 781
15.76 755
15.78 744
15.8 712
15.82 762
15.84 755
15.86 793
15.88 703
15.9 763
15.92 768
15.94 747
15.96 782
15.98 793
16 811
16.02 815
16.04 810
16.06 756
16.08 734
16.1 775
16.12 766
16.14 795
16.16 814
16.18 747
16.2 775
16.22 766
16.24 844
16.26 828
16.28 783
16.3 843
16.32 815
16.34 840
16.36 846
16.38 840
16.4 871
16.42 812
16.44 806
16.46 824
16.48 861
16.5 808
16.52 807
16.54 856
16.56 876
16.58 883
16.6 782
16.62 860
16.64 835
16.66 867
16.68 842
16.7 893
16.72 903
16.74 828
16.76 863
16.78 881
16.8 842
16.82 919
16.84 868
16.86 885
16.88 839
16.9 903
16.92 912
16.94 976
16.96 910
16.98 962
17 959
17.02 1038
17.04 1100
17.06 1024
17.08 1128
17.1 1091
17.12 1088
17.14 1076
17.16 1069
17.18 1133
17.2 1084
17.22 1073
17.24 1066
17.26 995
17.28 1019
17.3 992
17.32 1007
17.34 948
17.36 920
17.38 948
17.4 945
17.42 984
17.44 978
17.46 941
17.48 1021
17.5 967
17.52 987
17.54 929
17.56 1012
17.58 1006
17.6 983
17.62 990
17.64 979
17.66 1005
17.68 968
17.7 946
17.72 1005
17.74 1009
17.76 1026
17.78 1029
17.8 1016
17.82 1035
17.84 1051
17.86 1092
17.88 1028
17.9 1047
17.92 1044
17.94 1014
17.96 1093
17.98 1018
18 1068
18.02 1056
18.04 1043
18.06 1096
18.08 1044
18.1 1023
18.12 1019
18.14 1122
18.16 1097
18.18 1079
18.2 1083
18.22 1071
18.24 1082
18.26 1069
18.28 1130
18.3 1059
18.32 1082
18.34 1122
18.36 1106
18.38 1100
18.4 1084
18.42 1089
18.44 1113
18.46 1186
18.48 1129
18.5 1163
18.52 1130
18.54 1182
18.56 1181
18.58 1116
18.6 1187
18.62 1133
18.64 1144
18.66 1226
18.68 1147
18.7 1183
18.72 1200
18.74 1135
18.76 1155
18.78 1156
18.8 1248
18.82 1181
18.84 1190
18.86 1214
18.88 1233
18.9 1209
18.92 1253
18.94 1234
18.96 1243
18.98 1215
19 1177
19.02 1218
19.04 1229
19.06 1153
19.08 1256
19.1 1267
19.12 1250
19.14 1166
19.16 1190
19.18 1271
19.2 1255
19.22 1311
19.24 1304
19.26 1215
19.28 1265
19.3 1343
19.32 1250
19.34 1274
19.36 1291
19.38 1287
19.4 1266
19.42 1323
19.44 1274
19.46 1323
19.48 1321
19.5 1307
19.52 1294
19.54 1334
19.56 1272
19.58 1337
19.6 1274
19.62 1333
19.64 1313
19.66 1310
19.68 1307
19.7 1350
19.72 1420
19.74 1336
19.76 1313
19.78 1317
19.8 1371
19.82 1340
19.84 1354
19.86 1315
19.88 1350
19.9 1386
19.92 1349
19.94 1366
19.96 1419
19.98 1411
20 1416