File: xrd-UiO-67/pxrddata/7-20.ASC
3 2296
3.02 2057
3.04 1989
3.06 1858
3.08 1802
3.1 1738
3.12 1733
3.14 1641
3.16 1578
3.18 1605
3.2 1490
3.22 1642
3.24 1576
3.26 1542
3.28 1541
3.3 1463
3.32 1448
3.34 1427
3.36 1440
3.38 1376
3.4 1469
3.42 1392
3.44 1384
3.46 1405
3.48 1418
3.5 1372
3.52 1364
3.54 1367
3.56 1325
3.58 1324
3.6 1316
3.62 1226
3.64 1305
3.66 1301
3.68 1244
3.7 1281
3.72 1230
3.74 1225
3.76 1188
3.78 1233
3.8 1318
3.82 1218
3.84 1158
3.86 1139
3.88 1176
3.9 1175
3.92 1176
3.94 1108
3.96 1105
3.98 1153
4 1108
4.02 1168
4.04 1090
4.06 1063
4.08 1104
4.1 1043
4.12 1044
4.14 1048
4.16 1074
4.18 1038
4.2 1029
4.22 1066
4.24 1034
4.26 1002
4.28 1026
4.3 1020
4.32 1079
4.34 991
4.36 958
4.38 976
4.4 985
4.42 963
4.44 988
4.46 968
4.48 1034
4.5 1023
4.52 1005
4.54 991
4.56 936
4.58 987
4.6 990
4.62 960
4.64 988
4.66 922
4.68 916
4.7 919
4.72 937
4.74 945
4.76 906
4.78 957
4.8 951
4.82 925
4.84 943
4.86 919
4.88 909
4.9 925
4.92 951
4.94 896
4.96 948
4.98 975
5 947
5.02 928
5.04 947
5.06 934
5.08 964
5.1 1041
5.12 994
5.14 951
5.16 1054
5.18 967
5.2 981
5.22 1038
5.24 1055
5.26 1002
5.28 1023
5.3 1133
5.32 1048
5.34 1087
5.36 1141
5.38 1146
5.4 1116
5.42 1084
5.44 1196
5.46 1208
5.48 1172
5.5 1213
5.52 1242
5.54 1184
5.56 1213
5.58 1240
5.6 1229
5.62 1316
5.64 1244
5.66 1281
5.68 1230
5.7 1190
5.72 1243
5.74 1269
5.76 1268
5.78 1256
5.8 1230
5.82 1233
5.84 1232
5.86 1111
5.88 1201
5.9 1151
5.92 1087
5.94 1082
5.96 1027
5.98 1001
6 961
6.02 982
6.04 934
6.06 906
6.08 875
6.1 922
6.12 921
6.14 930
6.16 864
6.18 803
6.2 835
6.22 860
6.24 861
6.26 841
6.28 860
6.3 874
6.32 836
6.34 858
6.36 817
6.38 823
6.4 831
6.42 802
6.44 774
6.46 809
6.48 855
6.5 802
6.52 816
6.54 743
6.56 835
6.58 810
6.6 741
6.62 835
6.64 815
6.66 785
6.68 797
6.7 862
6.72 796
6.74 774
6.76 841
6.78 795
6.8 777
6.82 767
6.84 790
6.86 749
6.88 746
6.9 765
6.92 749
6.94 770
6.96 789
6.98 752
7 808
7.02 748
7.04 751
7.06 780
7.08 735
7.1 755
7.12 777
7.14 756
7.16 739
7.18 751
7.2 736
7.22 775
7.24 701
7.26 773
7.28 727
7.3 757
7.32 736
7.34 750
7.36 735
7.38 741
7.4 731
7.42 766
7.44 739
7.46 716
7.48 745
7.5 731
7.52 710
7.54 706
7.56 748
7.58 735
7.6 691
7.62 713
7.64 760
7.66 751
7.68 764
7.7 780
7.72 727
7.74 768
7.76 772
7.78 703
7.8 747
7.82 782
7.84 781
7.86 745
7.88 760
7.9 741
7.92 731
7.94 711
7.96 735
7.98 726
8 712
8.02 728
8.04 729
8.06 701
8.08 732
8.1 776
8.12 728
8.14 692
8.16 756
8.18 741
8.2 674
8.22 722
8.24 689
8.26 696
8.28 726
8.3 680
8.32 724
8.34 713
8.36 698
8.38 718
8.4 726
8.42 686
8.44 709
8.46 695
8.48 698
8.5 702
8.52 705
8.54 708
8.56 683
8.58 734
8.6 705
8.62 699
8.64 693
8.66 739
8.68 755
8.7 731
8.72 722
8.74 684
8.76 738
8.78 713
8.8 730
8.82 735
8.84 718
8.86 696
8.88 760
8.9 731
8.92 734
8.94 717
8.96 759
8.98 716
9 731
9.02 714
9.04 775
9.06 755
9.08 766
9.1 806
9.12 813
9.14 762
9.16 729
9.18 815
9.2 747
9.22 748
9.24 801
9.26 757
9.28 799
9.3 833
9.32 816
9.34 785
9.36 849
9.38 837
9.4 815
9.42 792
9.44 795
9.46 754
9.48 759
9.5 749
9.52 754
9.54 751
9.56 753
9.58 746
9.6 713
9.62 737
9.64 745
9.66 709
9.68 723
9.7 706
9.72 725
9.74 708
9.76 722
9.78 756
9.8 708
9.82 773
9.84 720
9.86 745
9.88 712
9.9 712
9.92 663
9.94 749
9.96 715
9.98 735
10 673
10.02 728
10.04 680
10.06 715
10.08 676
10.1 708
10.12 734
10.14 765
10.16 715
10.18 696
10.2 683
10.22 687
10.24 739
10.26 775
10.28 742
10.3 724
10.32 684
10.34 665
10.36 706
10.38 651
10.4 665
10.42 693
10.44 721
10.46 694
10.48 675
10.5 692
10.52 674
10.54 720
10.56 727
10.58 712
10.6 723
10.62 714
10.64 703
10.66 723
10.68 719
10.7 746
10.72 722
10.74 718
10.76 719
10.78 750
10.8 736
10.82 741
10.84 752
10.86 748
10.88 748
10.9 719
10.92 803
10.94 757
10.96 723
10.98 744
11 791
11.02 766
11.04 748
11.06 744
11.08 727
11.1 719
11.12 712
11.14 722
11.16 709
11.18 720
11.2 703
11.22 701
11.24 657
11.26 739
11.28 719
11.3 705
11.32 724
11.34 710
11.36 676
11.38 687
11.4 718
11.42 751
11.44 716
11.46 662
11.48 713
11.5 670
11.52 704
11.54 726
11.56 705
11.58 709
11.6 656
11.62 721
11.64 689
11.66 697
11.68 688
11.7 670
11.72 701
11.74 694
11.76 674
11.78 659
11.8 736
11.82 670
11.84 690
11.86 721
11.88 683
11.9 723
11.92 664
11.94 670
11.96 707
11.98 657
12 693
12.02 687
12.04 664
12.06 654
12.08 701
12.1 723
12.12 678
12.14 699
12.16 677
12.18 691
12.2 657
12.22 648
12.24 678
12.26 710
12.28 706
12.3 712
12.32 695
12.34 644
12.36 708
12.38 685
12.4 686
12.42 689
12.44 680
12.46 669
12.48 660
12.5 690
12.52 676
12.54 696
12.56 654
12.58 736
12.6 695
12.62 711
12.64 705
12.66 667
12.68 707
12.7 676
12.72 693
12.74 674
12.76 666
12.78 687
12.8 697
12.82 673
12.84 678
12.86 698
12.88 700
12.9 643
12.92 628
12.94 695
12.96 700
12.98 670
13 667
13.02 715
13.04 713
13.06 737
13.08 707
13.1 686
13.12 693
13.14 689
13.16 683
13.18 717
13.2 709
13.22 689
13.24 738
13.26 692
13.28 681
13.3 708
13.32 692
13.34 683
13.36 739
13.38 721
13.4 708
13.42 732
13.44 770
13.46 716
13.48 705
13.5 697
13.52 761
13.54 727
13.56 730
13.58 729
13.6 734
13.62 709
13.64 716
13.66 757
13.68 750
13.7 718
13.72 717
13.74 721
13.76 724
13.78 700
13.8 757
13.82 720
13.84 751
13.86 726
13.88 773
13.9 768
13.92 755
13.94 748
13.96 733
13.98 698
14 752
14.02 742
14.04 710
14.06 709
14.08 740
14.1 733
14.12 748
14.14 774
14.16 773
14.18 748
14.2 733
14.22 741
14.24 786
14.26 805
14.28 757
14.3 731
14.32 792
14.34 746
14.36 763
14.38 742
14.4 712
14.42 760
14.44 747
14.46 754
14.48 766
14.5 818
14.52 763
14.54 813
14.56 723
14.58 773
14.6 800
14.62 783
14.64 780
14.66 740
14.68 810
14.7 817
14.72 752
14.74 802
14.76 779
14.78 811
14.8 808
14.82 816
14.84 758
14.86 786
14.88 729
14.9 791
14.92 756
14.94 780
14.96 844
14.98 776
15 803
15.02 827
15.04 809
15.06 796
15.08 825
15.1 818
15.12 845
15.14 805
15.16 794
15.18 833
15.2 799
15.22 823
15.24 817
15.26 809
15.28 789
15.3 817
15.32 755
15.34 804
15.36 795
15.38 857
15.4 791
15.42 784
15.44 804
15.46 796
15.48 841
15.5 881
15.52 884
15.54 812
15.56 775
15.58 824
15.6 852
15.62 868
15.64 831
15.66 863
15.68 825
15.7 882
15.72 843
15.74 896
15.76 803
15.78 894
15.8 857
15.82 834
15.84 803
15.86 834
15.88 856
15.9 812
15.92 806
15.94 880
15.96 859
15.98 808
16 814
16.02 855
16.04 842
16.06 849
16.08 826
16.1 826
16.12 887
16.14 850
16.16 825
16.18 837
16.2 907
16.22 854
16.24 865
16.26 819
16.28 831
16.3 872
16.32 886
16.34 882
16.36 824
16.38 889
16.4 888
16.42 881
16.44 925
16.46 857
16.48 835
16.5 883
16.52 941
16.54 904
16.56 928
16.58 878
16.6 896
16.62 876
16.64 911
16.66 839
16.68 851
16.7 903
16.72 920
16.74 911
16.76 883
16.78 965
16.8 914
16.82 941
16.84 913
16.86 876
16.88 925
16.9 921
16.92 938
16.94 924
16.96 911
16.98 912
17 900
17.02 964
17.04 919
17.06 940
17.08 915
17.1 926
17.12 877
17.14 878
17.16 958
17.18 970
17.2 954
17.22 926
17.24 971
17.26 925
17.28 892
17.3 959
17.32 994
17.34 1007
17.36 1014
17.38 974
17.4 964
17.42 987
17.44 1004
17.46 960
17.48 974
17.5 989
17.52 1045
17.54 1033
17.56 919
17.58 967
17.6 1040
17.62 980
17.64 1016
17.66 1005
17.68 1041
17.7 987
17.72 958
17.74 978
17.76 970
17.78 974
17.8 983
17.82 1053
17.84 1005
17.86 1013
17.88 980
17.9 1008
17.92 1026
17.94 971
17.96 1055
17.98 1022
18 1028
18.02 982
18.04 1005
18.06 1024
18.08 1059
18.1 989
18.12 1012
18.14 955
18.16 1021
18.18 1084
18.2 1091
18.22 1071
18.24 985
18.26 1007
18.28 1115
18.3 991
18.32 970
18.34 1043
18.36 1045
18.38 1073
18.4 1058
18.42 1003
18.44 1104
18.46 1020
18.48 1085
18.5 1069
18.52 1098
18.54 1045
18.56 1076
18.58 1076
18.6 1073
18.62 1065
18.64 1038
18.66 1114
18.68 1058
18.7 1115
18.72 1042
18.74 1092
18.76 1052
18.78 1085
18.8 1076
18.82 1122
18.84 1094
18.86 1100
18.88 1127
18.9 1055
18.92 1138
18.94 1156
18.96 1091
18.98 1070
19 1089
19.02 1115
19.04 1118
19.06 1056
19.08 1161
19.1 1129
19.12 1176
19.14 1156
19.16 1092
19.18 1090
19.2 1101
19.22 1133
19.24 1151
19.26 1160
19.28 1101
19.3 1195
19.32 1145
19.34 1154
19.36 1258
19.38 1158
19.4 1120
19.42 1180
19.44 1156
19.46 1160
19.48 1230
19.5 1176
19.52 1179
19.54 1091
19.56 1189
19.58 1116
19.6 1183
19.62 1155
19.64 1157
19.66 1072
19.68 1185
19.7 1159
19.72 1165
19.74 1168
19.76 1178
19.78 1238
19.8 1185
19.82 1172
19.84 1210
19.86 1134
19.88 1100
19.9 1170
19.92 1224
19.94 1208
19.96 1235
19.98 1168
20 1174