File: xrd-UiO-67/pxrddata/7-21.ASC
3 2214
3.02 2057
3.04 1889
3.06 1691
3.08 1662
3.1 1684
3.12 1577
3.14 1484
3.16 1463
3.18 1469
3.2 1440
3.22 1443
3.24 1459
3.26 1350
3.28 1348
3.3 1317
3.32 1313
3.34 1377
3.36 1374
3.38 1352
3.4 1328
3.42 1292
3.44 1332
3.46 1300
3.48 1311
3.5 1169
3.52 1176
3.54 1218
3.56 1163
3.58 1200
3.6 1214
3.62 1177
3.64 1187
3.66 1156
3.68 1118
3.7 1200
3.72 1160
3.74 1130
3.76 1166
3.78 1103
3.8 1095
3.82 1134
3.84 1078
3.86 1102
3.88 1050
3.9 1081
3.92 1045
3.94 1058
3.96 1050
3.98 978
4 1030
4.02 999
4.04 1020
4.06 1056
4.08 989
4.1 1001
4.12 977
4.14 895
4.16 967
4.18 934
4.2 938
4.22 958
4.24 921
4.26 951
4.28 891
4.3 882
4.32 931
4.34 896
4.36 875
4.38 890
4.4 881
4.42 911
4.44 881
4.46 862
4.48 856
4.5 840
4.52 877
4.54 871
4.56 832
4.58 829
4.6 829
4.62 828
4.64 805
4.66 852
4.68 846
4.7 856
4.72 828
4.74 813
4.76 830
4.78 822
4.8 831
4.82 836
4.84 843
4.86 819
4.88 848
4.9 759
4.92 788
4.94 816
4.96 788
4.98 827
5 827
5.02 791
5.04 754
5.06 797
5.08 773
5.1 788
5.12 800
5.14 795
5.16 809
5.18 744
5.2 759
5.22 785
5.24 762
5.26 795
5.28 756
5.3 745
5.32 748
5.34 763
5.36 700
5.38 781
5.4 705
5.42 790
5.44 768
5.46 687
5.48 771
5.5 748
5.52 735
5.54 832
5.56 728
5.58 755
5.6 786
5.62 725
5.64 791
5.66 748
5.68 785
5.7 732
5.72 773
5.74 738
5.76 753
5.78 736
5.8 760
5.82 711
5.84 740
5.86 716
5.88 750
5.9 737
5.92 705
5.94 741
5.96 756
5.98 695
6 748
6.02 693
6.04 709
6.06 706
6.08 710
6.1 739
6.12 726
6.14 709
6.16 725
6.18 719
6.2 704
6.22 741
6.24 731
6.26 703
6.28 748
6.3 749
6.32 740
6.34 735
6.36 719
6.38 755
6.4 707
6.42 691
6.44 704
6.46 735
6.48 699
6.5 746
6.52 725
6.54 721
6.56 715
6.58 795
6.6 711
6.62 696
6.64 697
6.66 713
6.68 688
6.7 683
6.72 658
6.74 675
6.76 666
6.78 715
6.8 723
6.82 712
6.84 704
6.86 783
6.88 671
6.9 688
6.92 731
6.94 730
6.96 702
6.98 737
7 732
7.02 696
7.04 700
7.06 756
7.08 711
7.1 662
7.12 672
7.14 701
7.16 695
7.18 686
7.2 693
7.22 666
7.24 695
7.26 710
7.28 683
7.3 634
7.32 640
7.34 665
7.36 719
7.38 684
7.4 685
7.42 700
7.44 708
7.46 712
7.48 722
7.5 681
7.52 696
7.54 697
7.56 680
7.58 648
7.6 684
7.62 644
7.64 697
7.66 716
7.68 661
7.7 666
7.72 684
7.74 693
7.76 694
7.78 678
7.8 686
7.82 634
7.84 668
7.86 698
7.88 704
7.9 746
7.92 654
7.94 672
7.96 681
7.98 651
8 676
8.02 687
8.04 691
8.06 674
8.08 644
8.1 732
8.12 738
8.14 682
8.16 659
8.18 684
8.2 660
8.22 680
8.24 677
8.26 660
8.28 686
8.3 666
8.32 665
8.34 710
8.36 675
8.38 688
8.4 643
8.42 668
8.44 675
8.46 630
8.48 663
8.5 671
8.52 705
8.54 685
8.56 636
8.58 655
8.6 645
8.62 647
8.64 635
8.66 628
8.68 635
8.7 653
8.72 641
8.74 648
8.76 675
8.78 613
8.8 651
8.82 634
8.84 620
8.86 650
8.88 629
8.9 648
8.92 636
8.94 648
8.96 672
8.98 696
9 670
9.02 608
9.04 637
9.06 667
9.08 632
9.1 642
9.12 637
9.14 644
9.16 629
9.18 589
9.2 658
9.22 623
9.24 664
9.26 642
9.28 598
9.3 621
9.32 646
9.34 608
9.36 652
9.38 651
9.4 660
9.42 655
9.44 636
9.46 649
9.48 657
9.5 606
9.52 593
9.54 646
9.56 614
9.58 669
9.6 660
9.62 588
9.64 595
9.66 672
9.68 661
9.7 643
9.72 631
9.74 623
9.76 635
9.78 612
9.8 578
9.82 609
9.84 636
9.86 671
9.88 650
9.9 647
9.92 591
9.94 635
9.96 627
9.98 583
10 605
10.02 565
10.04 584
10.06 642
10.08 623
10.1 629
10.12 614
10.14 648
10.16 559
10.18 586
10.2 619
10.22 633
10.24 570
10.26 635
10.28 646
10.3 685
10.32 580
10.34 589
10.36 627
10.38 656
10.4 616
10.42 596
10.44 595
10.46 597
10.48 591
10.5 620
10.52 632
10.54 638
10.56 643
10.58 611
10.6 579
10.62 621
10.64 593
10.66 611
10.68 571
10.7 605
10.72 590
10.74 602
10.76 574
10.78 596
10.8 587
10.82 610
10.84 574
10.86 596
10.88 575
10.9 595
10.92 589
10.94 616
10.96 613
10.98 611
11 577
11.02 613
11.04 601
11.06 606
11.08 632
11.1 611
11.12 616
11.14 584
11.16 622
11.18 634
11.2 601
11.22 592
11.24 581
11.26 582
11.28 588
11.3 568
11.32 608
11.34 609
11.36 615
11.38 601
11.4 628
11.42 615
11.44 598
11.46 607
11.48 619
11.5 590
11.52 581
11.54 610
11.56 616
11.58 620
11.6 599
11.62 579
11.64 602
11.66 592
11.68 544
11.7 593
11.72 616
11.74 603
11.76 618
11.78 615
11.8 635
11.82 565
11.84 616
11.86 572
11.88 625
11.9 589
11.92 639
11.94 608
11.96 629
11.98 639
12 578
12.02 601
12.04 625
12.06 613
12.08 610
12.1 627
12.12 631
12.14 634
12.16 632
12.18 578
12.2 604
12.22 620
12.24 589
12.26 559
12.28 626
12.3 580
12.32 603
12.34 553
12.36 634
12.38 599
12.4 630
12.42 574
12.44 641
12.46 600
12.48 601
12.5 621
12.52 633
12.54 654
12.56 623
12.58 598
12.6 620
12.62 574
12.64 566
12.66 645
12.68 575
12.7 609
12.72 577
12.74 617
12.76 612
12.78 616
12.8 558
12.82 534
12.84 653
12.86 614
12.88 616
12.9 650
12.92 600
12.94 612
12.96 599
12.98 588
13 580
13.02 609
13.04 600
13.06 601
13.08 623
13.1 580
13.12 608
13.14 633
13.16 605
13.18 637
13.2 582
13.22 610
13.24 642
13.26 620
13.28 642
13.3 629
13.32 613
13.34 638
13.36 630
13.38 658
13.4 643
13.42 630
13.44 637
13.46 640
13.48 621
13.5 641
13.52 637
13.54 631
13.56 674
13.58 646
13.6 609
13.62 634
13.64 622
13.66 620
13.68 654
13.7 670
13.72 646
13.74 635
13.76 641
13.78 647
13.8 689
13.82 658
13.84 604
13.86 632
13.88 665
13.9 632
13.92 620
13.94 655
13.96 665
13.98 647
14 651
14.02 617
14.04 651
14.06 679
14.08 646
14.1 668
14.12 626
14.14 629
14.16 688
14.18 657
14.2 664
14.22 644
14.24 655
14.26 675
14.28 637
14.3 681
14.32 680
14.34 668
14.36 659
14.38 641
14.4 656
14.42 688
14.44 656
14.46 669
14.48 662
14.5 702
14.52 706
14.54 653
14.56 653
14.58 697
14.6 671
14.62 680
14.64 678
14.66 667
14.68 696
14.7 675
14.72 702
14.74 681
14.76 699
14.78 676
14.8 738
14.82 703
14.84 742
14.86 687
14.88 698
14.9 685
14.92 726
14.94 720
14.96 696
14.98 718
15 715
15.02 740
15.04 708
15.06 700
15.08 732
15.1 710
15.12 695
15.14 713
15.16 757
15.18 725
15.2 677
15.22 674
15.24 798
15.26 746
15.28 717
15.3 741
15.32 752
15.34 720
15.36 739
15.38 752
15.4 778
15.42 788
15.44 748
15.46 768
15.48 748
15.5 774
15.52 772
15.54 756
15.56 698
15.58 690
15.6 721
15.62 757
15.64 741
15.66 785
15.68 778
15.7 746
15.72 738
15.74 766
15.76 768
15.78 782
15.8 797
15.82 824
15.84 783
15.86 787
15.88 792
15.9 796
15.92 805
15.94 812
15.96 765
15.98 772
16 768
16.02 725
16.04 743
16.06 784
16.08 768
16.1 767
16.12 856
16.14 824
16.16 795
16.18 816
16.2 808
16.22 809
16.24 816
16.26 825
16.28 804
16.3 756
16.32 768
16.34 816
16.36 870
16.38 805
16.4 777
16.42 781
16.44 858
16.46 828
16.48 865
16.5 801
16.52 862
16.54 830
16.56 879
16.58 882
16.6 855
16.62 921
16.64 887
16.66 859
16.68 877
16.7 883
16.72 905
16.74 937
16.76 945
16.78 996
16.8 1004
16.82 1007
16.84 1062
16.86 1063
16.88 1117
16.9 1121
16.92 1190
16.94 1322
16.96 1413
16.98 1424
17 1659
17.02 1824
17.04 1942
17.06 2131
17.08 2222
17.1 2224
17.12 2386
17.14 2179
17.16 1948
17.18 1686
17.2 1434
17.22 1219
17.24 1098
17.26 981
17.28 1006
17.3 995
17.32 968
17.34 994
17.36 952
17.38 962
17.4 981
17.42 923
17.44 977
17.46 953
17.48 938
17.5 980
17.52 979
17.54 975
17.56 957
17.58 999
17.6 959
17.62 903
17.64 991
17.66 989
17.68 986
17.7 1002
17.72 1016
17.74 991
17.76 1025
17.78 1028
17.8 1001
17.82 1042
17.84 1085
17.86 1059
17.88 1031
17.9 1034
17.92 1007
17.94 1059
17.96 1062
17.98 1087
18 1041
18.02 1020
18.04 1032
18.06 1036
18.08 1062
18.1 1072
18.12 1079
18.14 1121
18.16 1081
18.18 1075
18.2 1044
18.22 1050
18.24 1029
18.26 1102
18.28 1119
18.3 1072
18.32 1077
18.34 1074
18.36 1057
18.38 1127
18.4 1099
18.42 1105
18.44 1096
18.46 1093
18.48 1101
18.5 1074
18.52 1133
18.54 1097
18.56 1150
18.58 1161
18.6 1119
18.62 1147
18.64 1112
18.66 1107
18.68 1171
18.7 1180
18.72 1195
18.74 1128
18.76 1168
18.78 1138
18.8 1197
18.82 1186
18.84 1130
18.86 1197
18.88 1187
18.9 1174
18.92 1169
18.94 1171
18.96 1217
18.98 1276
19 1301
19.02 1188
19.04 1161
19.06 1231
19.08 1220
19.1 1234
19.12 1205
19.14 1219
19.16 1239
19.18 1200
19.2 1227
19.22 1203
19.24 1256
19.26 1209
19.28 1243
19.3 1284
19.32 1299
19.34 1265
19.36 1301
19.38 1219
19.4 1248
19.42 1308
19.44 1282
19.46 1347
19.48 1321
19.5 1311
19.52 1306
19.54 1294
19.56 1242
19.58 1281
19.6 1266
19.62 1267
19.64 1249
19.66 1288
19.68 1275
19.7 1324
19.72 1295
19.74 1311
19.76 1339
19.78 1338
19.8 1325
19.82 1343
19.84 1307
19.86 1313
19.88 1293
19.9 1352
19.92 1350
19.94 1423
19.96 1321
19.98 1329
20 1404