File: xrd-UiO-67/pxrddata/7-22.ASC
3 2381
3.02 2232
3.04 2091
3.06 1955
3.08 1831
3.1 1752
3.12 1677
3.14 1680
3.16 1606
3.18 1618
3.2 1588
3.22 1530
3.24 1466
3.26 1458
3.28 1471
3.3 1515
3.32 1479
3.34 1417
3.36 1350
3.38 1418
3.4 1393
3.42 1374
3.44 1381
3.46 1365
3.48 1336
3.5 1306
3.52 1243
3.54 1288
3.56 1266
3.58 1192
3.6 1264
3.62 1228
3.64 1204
3.66 1217
3.68 1184
3.7 1144
3.72 1199
3.74 1151
3.76 1205
3.78 1124
3.8 1093
3.82 1119
3.84 1082
3.86 1113
3.88 1117
3.9 1082
3.92 1058
3.94 1127
3.96 1019
3.98 1044
4 1041
4.02 1038
4.04 988
4.06 969
4.08 902
4.1 1005
4.12 920
4.14 912
4.16 974
4.18 972
4.2 933
4.22 931
4.24 955
4.26 894
4.28 902
4.3 888
4.32 895
4.34 872
4.36 879
4.38 905
4.4 912
4.42 880
4.44 897
4.46 857
4.48 902
4.5 892
4.52 837
4.54 871
4.56 824
4.58 800
4.6 792
4.62 838
4.64 874
4.66 819
4.68 785
4.7 773
4.72 808
4.74 792
4.76 784
4.78 795
4.8 767
4.82 783
4.84 799
4.86 818
4.88 829
4.9 749
4.92 778
4.94 797
4.96 789
4.98 723
5 757
5.02 809
5.04 740
5.06 773
5.08 753
5.1 719
5.12 760
5.14 744
5.16 775
5.18 774
5.2 764
5.22 707
5.24 729
5.26 712
5.28 761
5.3 751
5.32 753
5.34 731
5.36 750
5.38 771
5.4 725
5.42 743
5.44 746
5.46 698
5.48 742
5.5 716
5.52 785
5.54 737
5.56 743
5.58 753
5.6 682
5.62 757
5.64 729
5.66 674
5.68 752
5.7 689
5.72 724
5.74 698
5.76 731
5.78 728
5.8 716
5.82 726
5.84 733
5.86 711
5.88 722
5.9 731
5.92 723
5.94 682
5.96 742
5.98 679
6 688
6.02 708
6.04 757
6.06 707
6.08 693
6.1 715
6.12 695
6.14 738
6.16 738
6.18 721
6.2 659
6.22 698
6.24 718
6.26 696
6.28 711
6.3 710
6.32 683
6.34 689
6.36 691
6.38 716
6.4 700
6.42 701
6.44 666
6.46 718
6.48 659
6.5 712
6.52 748
6.54 692
6.56 717
6.58 689
6.6 671
6.62 711
6.64 687
6.66 650
6.68 674
6.7 695
6.72 728
6.74 651
6.76 710
6.78 678
6.8 744
6.82 704
6.84 689
6.86 665
6.88 682
6.9 710
6.92 681
6.94 749
6.96 700
6.98 715
7 681
7.02 688
7.04 704
7.06 669
7.08 651
7.1 644
7.12 697
7.14 671
7.16 667
7.18 677
7.2 676
7.22 710
7.24 680
7.26 678
7.28 659
7.3 675
7.32 724
7.34 691
7.36 719
7.38 660
7.4 686
7.42 702
7.44 719
7.46 706
7.48 719
7.5 715
7.52 662
7.54 650
7.56 692
7.58 680
7.6 654
7.62 665
7.64 692
7.66 694
7.68 654
7.7 685
7.72 645
7.74 665
7.76 658
7.78 687
7.8 664
7.82 665
7.84 665
7.86 637
7.88 653
7.9 694
7.92 677
7.94 680
7.96 648
7.98 699
8 619
8.02 638
8.04 648
8.06 700
8.08 663
8.1 697
8.12 702
8.14 670
8.16 663
8.18 652
8.2 654
8.22 691
8.24 659
8.26 622
8.28 673
8.3 684
8.32 625
8.34 660
8.36 664
8.38 628
8.4 644
8.42 665
8.44 633
8.46 666
8.48 621
8.5 705
8.52 661
8.54 646
8.56 665
8.58 673
8.6 651
8.62 673
8.64 667
8.66 659
8.68 664
8.7 635
8.72 665
8.74 676
8.76 637
8.78 649
8.8 657
8.82 620
8.84 666
8.86 663
8.88 601
8.9 628
8.92 715
8.94 658
8.96 638
8.98 628
9 650
9.02 649
9.04 606
9.06 655
9.08 684
9.1 648
9.12 660
9.14 644
9.16 663
9.18 612
9.2 605
9.22 641
9.24 609
9.26 654
9.28 634
9.3 673
9.32 683
9.34 659
9.36 646
9.38 699
9.4 646
9.42 628
9.44 653
9.46 634
9.48 657
9.5 617
9.52 657
9.54 650
9.56 661
9.58 667
9.6 639
9.62 658
9.64 652
9.66 636
9.68 627
9.7 581
9.72 635
9.74 613
9.76 680
9.78 619
9.8 674
9.82 649
9.84 608
9.86 619
9.88 650
9.9 589
9.92 611
9.94 626
9.96 599
9.98 607
10 658
10.02 624
10.04 619
10.06 618
10.08 613
10.1 599
10.12 637
10.14 643
10.16 622
10.18 631
10.2 641
10.22 655
10.24 640
10.26 604
10.28 604
10.3 625
10.32 587
10.34 601
10.36 650
10.38 617
10.4 616
10.42 647
10.44 594
10.46 649
10.48 587
10.5 583
10.52 640
10.54 614
10.56 624
10.58 582
10.6 612
10.62 615
10.64 606
10.66 599
10.68 591
10.7 606
10.72 608
10.74 628
10.76 647
10.78 646
10.8 607
10.82 628
10.84 622
10.86 591
10.88 570
10.9 638
10.92 571
10.94 609
10.96 628
10.98 640
11 637
11.02 577
11.04 623
11.06 619
11.08 603
11.1 640
11.12 637
11.14 574
11.16 604
11.18 588
11.2 629
11.22 661
11.24 638
11.26 627
11.28 653
11.3 649
11.32 640
11.34 594
11.36 621
11.38 589
11.4 627
11.42 576
11.44 575
11.46 625
11.48 610
11.5 629
11.52 646
11.54 643
11.56 590
11.58 592
11.6 666
11.62 635
11.64 642
11.66 617
11.68 607
11.7 600
11.72 595
11.74 598
11.76 627
11.78 565
11.8 647
11.82 652
11.84 611
11.86 579
11.88 670
11.9 646
11.92 635
11.94 632
11.96 587
11.98 617
12 625
12.02 622
12.04 617
12.06 586
12.08 613
12.1 629
12.12 614
12.14 638
12.16 631
12.18 687
12.2 619
12.22 651
12.24 662
12.26 594
12.28 594
12.3 608
12.32 662
12.34 617
12.36 610
12.38 618
12.4 631
12.42 605
12.44 599
12.46 628
12.48 644
12.5 669
12.52 598
12.54 618
12.56 648
12.58 662
12.6 662
12.62 649
12.64 624
12.66 611
12.68 645
12.7 647
12.72 676
12.74 604
12.76 648
12.78 625
12.8 700
12.82 686
12.84 664
12.86 667
12.88 659
12.9 706
12.92 631
12.94 668
12.96 698
12.98 651
13 653
13.02 634
13.04 654
13.06 633
13.08 658
13.1 636
13.12 620
13.14 647
13.16 697
13.18 665
13.2 642
13.22 650
13.24 680
13.26 662
13.28 684
13.3 723
13.32 669
13.34 691
13.36 622
13.38 713
13.4 644
13.42 665
13.44 667
13.46 677
13.48 638
13.5 678
13.52 603
13.54 669
13.56 653
13.58 654
13.6 666
13.62 625
13.64 681
13.66 683
13.68 666
13.7 676
13.72 653
13.74 659
13.76 711
13.78 687
13.8 679
13.82 653
13.84 718
13.86 697
13.88 676
13.9 694
13.92 686
13.94 686
13.96 678
13.98 653
14 696
14.02 677
14.04 720
14.06 678
14.08 712
14.1 699
14.12 693
14.14 710
14.16 716
14.18 701
14.2 699
14.22 723
14.24 701
14.26 766
14.28 662
14.3 684
14.32 669
14.34 691
14.36 691
14.38 720
14.4 694
14.42 706
14.44 708
14.46 690
14.48 731
14.5 638
14.52 727
14.54 725
14.56 692
14.58 754
14.6 675
14.62 716
14.64 710
14.66 704
14.68 700
14.7 749
14.72 747
14.74 706
14.76 694
14.78 782
14.8 749
14.82 720
14.84 742
14.86 721
14.88 730
14.9 782
14.92 753
14.94 721
14.96 759
14.98 713
15 722
15.02 738
15.04 717
15.06 700
15.08 747
15.1 723
15.12 744
15.14 754
15.16 726
15.18 817
15.2 809
15.22 781
15.24 781
15.26 756
15.28 753
15.3 793
15.32 789
15.34 759
15.36 792
15.38 784
15.4 754
15.42 759
15.44 800
15.46 807
15.48 762
15.5 739
15.52 774
15.54 794
15.56 765
15.58 791
15.6 727
15.62 718
15.64 817
15.66 781
15.68 781
15.7 822
15.72 787
15.74 793
15.76 828
15.78 856
15.8 731
15.82 835
15.84 846
15.86 839
15.88 827
15.9 816
15.92 809
15.94 836
15.96 832
15.98 804
16 830
16.02 803
16.04 850
16.06 845
16.08 786
16.1 825
16.12 815
16.14 822
16.16 836
16.18 853
16.2 823
16.22 872
16.24 871
16.26 825
16.28 814
16.3 877
16.32 825
16.34 908
16.36 826
16.38 841
16.4 873
16.42 904
16.44 882
16.46 878
16.48 856
16.5 964
16.52 858
16.54 874
16.56 895
16.58 944
16.6 910
16.62 877
16.64 870
16.66 889
16.68 955
16.7 902
16.72 897
16.74 985
16.76 1008
16.78 1011
16.8 1023
16.82 1020
16.84 1073
16.86 1136
16.88 1134
16.9 1268
16.92 1304
16.94 1445
16.96 1614
16.98 1876
17 1992
17.02 2273
17.04 2504
17.06 2350
17.08 2339
17.1 2003
17.12 1739
17.14 1459
17.16 1193
17.18 1099
17.2 1088
17.22 1037
17.24 1023
17.26 966
17.28 989
17.3 1049
17.32 997
17.34 953
17.36 984
17.38 1011
17.4 979
17.42 1044
17.44 988
17.46 975
17.48 980
17.5 1041
17.52 1042
17.54 1029
17.56 1060
17.58 1059
17.6 1007
17.62 1040
17.64 1033
17.66 1011
17.68 1054
17.7 968
17.72 1011
17.74 1060
17.76 1006
17.78 983
17.8 1073
17.82 1012
17.84 1034
17.86 1007
17.88 1017
17.9 1050
17.92 1107
17.94 1014
17.96 1057
17.98 1094
18 1067
18.02 1049
18.04 1082
18.06 1050
18.08 1042
18.1 1054
18.12 1062
18.14 1171
18.16 1116
18.18 1086
18.2 1068
18.22 1092
18.24 1122
18.26 1078
18.28 1052
18.3 1066
18.32 1093
18.34 1112
18.36 1064
18.38 1138
18.4 1131
18.42 1107
18.44 1118
18.46 1134
18.48 1158
18.5 1152
18.52 1133
18.54 1132
18.56 1148
18.58 1165
18.6 1090
18.62 1190
18.64 1112
18.66 1121
18.68 1169
18.7 1128
18.72 1143
18.74 1218
18.76 1166
18.78 1109
18.8 1190
18.82 1212
18.84 1202
18.86 1171
18.88 1198
18.9 1231
18.92 1216
18.94 1245
18.96 1161
18.98 1185
19 1211
19.02 1200
19.04 1205
19.06 1224
19.08 1216
19.1 1216
19.12 1270
19.14 1235
19.16 1216
19.18 1284
19.2 1226
19.22 1205
19.24 1275
19.26 1203
19.28 1260
19.3 1266
19.32 1263
19.34 1238
19.36 1279
19.38 1221
19.4 1218
19.42 1301
19.44 1281
19.46 1311
19.48 1304
19.5 1254
19.52 1301
19.54 1340
19.56 1279
19.58 1349
19.6 1288
19.62 1321
19.64 1258
19.66 1351
19.68 1351
19.7 1352
19.72 1324
19.74 1369
19.76 1353
19.78 1350
19.8 1368
19.82 1313
19.84 1353
19.86 1318
19.88 1342
19.9 1398
19.92 1376
19.94 1358
19.96 1345
19.98 1378
20 1385