File: xrd-UiO-67/pxrddata/7-23.ASC
3 2253
3.02 2045
3.04 1876
3.06 1811
3.08 1632
3.1 1577
3.12 1504
3.14 1496
3.16 1430
3.18 1465
3.2 1411
3.22 1412
3.24 1398
3.26 1337
3.28 1314
3.3 1285
3.32 1347
3.34 1295
3.36 1312
3.38 1271
3.4 1317
3.42 1268
3.44 1313
3.46 1214
3.48 1239
3.5 1238
3.52 1200
3.54 1173
3.56 1149
3.58 1151
3.6 1134
3.62 1221
3.64 1168
3.66 1149
3.68 1185
3.7 1121
3.72 1106
3.74 1103
3.76 1131
3.78 1157
3.8 1144
3.82 1112
3.84 1043
3.86 1121
3.88 1069
3.9 1113
3.92 1066
3.94 1046
3.96 1051
3.98 1044
4 1117
4.02 1020
4.04 1069
4.06 1096
4.08 1033
4.1 1027
4.12 1007
4.14 1045
4.16 1034
4.18 1014
4.2 1093
4.22 993
4.24 1013
4.26 1066
4.28 1006
4.3 983
4.32 1043
4.34 975
4.36 1049
4.38 1018
4.4 1015
4.42 1081
4.44 1072
4.46 1027
4.48 1010
4.5 1009
4.52 983
4.54 1003
4.56 1033
4.58 1038
4.6 1044
4.62 999
4.64 1078
4.66 987
4.68 1076
4.7 1013
4.72 1022
4.74 1014
4.76 1047
4.78 1055
4.8 1020
4.82 983
4.84 968
4.86 1068
4.88 1048
4.9 987
4.92 1044
4.94 1069
4.96 1053
4.98 1001
5 976
5.02 1075
5.04 1074
5.06 1024
5.08 1049
5.1 1099
5.12 1021
5.14 1023
5.16 1040
5.18 1036
5.2 1043
5.22 998
5.24 1028
5.26 1080
5.28 1049
5.3 1093
5.32 1041
5.34 1086
5.36 1074
5.38 992
5.4 1082
5.42 1096
5.44 1057
5.46 1049
5.48 1112
5.5 1106
5.52 1099
5.54 1048
5.56 1060
5.58 1087
5.6 1083
5.62 1083
5.64 1069
5.66 1073
5.68 1086
5.7 1001
5.72 1047
5.74 1084
5.76 1092
5.78 1077
5.8 1063
5.82 1072
5.84 1062
5.86 1100
5.88 1050
5.9 1063
5.92 1070
5.94 1007
5.96 1044
5.98 983
6 1016
6.02 1054
6.04 1029
6.06 988
6.08 1048
6.1 1032
6.12 988
6.14 1020
6.16 1004
6.18 1003
6.2 964
6.22 968
6.24 963
6.26 1015
6.28 973
6.3 959
6.32 936
6.34 957
6.36 955
6.38 971
6.4 956
6.42 922
6.44 915
6.46 934
6.48 918
6.5 945
6.52 900
6.54 903
6.56 845
6.58 844
6.6 904
6.62 824
6.64 883
6.66 855
6.68 863
6.7 829
6.72 763
6.74 844
6.76 815
6.78 848
6.8 813
6.82 817
6.84 781
6.86 789
6.88 757
6.9 780
6.92 811
6.94 794
6.96 731
6.98 784
7 770
7.02 741
7.04 738
7.06 717
7.08 739
7.1 762
7.12 742
7.14 752
7.16 775
7.18 729
7.2 723
7.22 764
7.24 715
7.26 675
7.28 688
7.3 742
7.32 716
7.34 709
7.36 698
7.38 660
7.4 663
7.42 696
7.44 692
7.46 651
7.48 649
7.5 662
7.52 644
7.54 699
7.56 596
7.58 608
7.6 736
7.62 638
7.64 635
7.66 667
7.68 645
7.7 614
7.72 625
7.74 590
7.76 641
7.78 636
7.8 621
7.82 585
7.84 599
7.86 632
7.88 588
7.9 645
7.92 612
7.94 623
7.96 601
7.98 619
8 619
8.02 627
8.04 562
8.06 570
8.08 575
8.1 553
8.12 585
8.14 606
8.16 609
8.18 587
8.2 584
8.22 596
8.24 583
8.26 549
8.28 617
8.3 604
8.32 580
8.34 609
8.36 589
8.38 592
8.4 556
8.42 589
8.44 554
8.46 603
8.48 588
8.5 603
8.52 569
8.54 577
8.56 602
8.58 563
8.6 575
8.62 591
8.64 528
8.66 581
8.68 565
8.7 560
8.72 566
8.74 567
8.76 593
8.78 580
8.8 579
8.82 579
8.84 565
8.86 555
8.88 570
8.9 557
8.92 574
8.94 558
8.96 553
8.98 536
9 561
9.02 556
9.04 550
9.06 566
9.08 524
9.1 573
9.12 558
9.14 572
9.16 567
9.18 583
9.2 527
9.22 548
9.24 558
9.26 568
9.28 563
9.3 581
9.32 569
9.34 564
9.36 589
9.38 545
9.4 530
9.42 550
9.44 553
9.46 508
9.48 535
9.5 537
9.52 506
9.54 569
9.56 538
9.58 552
9.6 532
9.62 555
9.64 525
9.66 573
9.68 534
9.7 528
9.72 525
9.74 563
9.76 557
9.78 516
9.8 480
9.82 548
9.84 510
9.86 524
9.88 520
9.9 519
9.92 525
9.94 516
9.96 537
9.98 551
10 531
10.02 559
10.04 539
10.06 548
10.08 502
10.1 512
10.12 511
10.14 515
10.16 544
10.18 547
10.2 514
10.22 492
10.24 542
10.26 558
10.28 522
10.3 533
10.32 517
10.34 547
10.36 553
10.38 501
10.4 555
10.42 516
10.44 537
10.46 523
10.48 502
10.5 584
10.52 545
10.54 553
10.56 520
10.58 533
10.6 540
10.62 503
10.64 513
10.66 520
10.68 485
10.7 519
10.72 521
10.74 520
10.76 524
10.78 520
10.8 535
10.82 485
10.84 493
10.86 525
10.88 484
10.9 529
10.92 541
10.94 525
10.96 520
10.98 477
11 481
11.02 504
11.04 502
11.06 523
11.08 490
11.1 540
11.12 538
11.14 521
11.16 530
11.18 532
11.2 525
11.22 540
11.24 543
11.26 503
11.28 529
11.3 512
11.32 527
11.34 536
11.36 532
11.38 542
11.4 538
11.42 572
11.44 550
11.46 526
11.48 497
11.5 552
11.52 547
11.54 506
11.56 507
11.58 502
11.6 549
11.62 493
11.64 510
11.66 500
11.68 480
11.7 548
11.72 508
11.74 516
11.76 496
11.78 512
11.8 530
11.82 537
11.84 526
11.86 517
11.88 491
11.9 482
11.92 513
11.94 505
11.96 515
11.98 501
12 508
12.02 553
12.04 510
12.06 511
12.08 588
12.1 507
12.12 487
12.14 509
12.16 512
12.18 486
12.2 503
12.22 518
12.24 505
12.26 472
12.28 518
12.3 505
12.32 459
12.34 476
12.36 442
12.38 543
12.4 529
12.42 495
12.44 473
12.46 472
12.48 498
12.5 473
12.52 432
12.54 461
12.56 541
12.58 513
12.6 495
12.62 515
12.64 498
12.66 476
12.68 501
12.7 512
12.72 489
12.74 516
12.76 480
12.78 482
12.8 482
12.82 499
12.84 513
12.86 482
12.88 504
12.9 508
12.92 501
12.94 497
12.96 518
12.98 471
13 499
13.02 486
13.04 484
13.06 461
13.08 520
13.1 502
13.12 492
13.14 476
13.16 480
13.18 485
13.2 530
13.22 483
13.24 480
13.26 534
13.28 523
13.3 518
13.32 489
13.34 476
13.36 517
13.38 495
13.4 513
13.42 535
13.44 508
13.46 459
13.48 488
13.5 532
13.52 482
13.54 528
13.56 460
13.58 468
13.6 513
13.62 513
13.64 504
13.66 487
13.68 499
13.7 470
13.72 497
13.74 493
13.76 498
13.78 486
13.8 498
13.82 494
13.84 487
13.86 498
13.88 520
13.9 551
13.92 508
13.94 478
13.96 489
13.98 519
14 487
14.02 506
14.04 462
14.06 519
14.08 492
14.1 501
14.12 507
14.14 505
14.16 509
14.18 529
14.2 490
14.22 488
14.24 480
14.26 516
14.28 512
14.3 517
14.32 512
14.34 518
14.36 515
14.38 559
14.4 515
14.42 484
14.44 475
14.46 526
14.48 500
14.5 498
14.52 502
14.54 509
14.56 513
14.58 521
14.6 508
14.62 501
14.64 532
14.66 538
14.68 556
14.7 576
14.72 504
14.74 516
14.76 562
14.78 484
14.8 494
14.82 519
14.84 554
14.86 541
14.88 494
14.9 534
14.92 499
14.94 543
14.96 507
14.98 527
15 550
15.02 482
15.04 529
15.06 511
15.08 531
15.1 514
15.12 504
15.14 543
15.16 512
15.18 564
15.2 545
15.22 556
15.24 524
15.26 542
15.28 581
15.3 525
15.32 566
15.34 564
15.36 550
15.38 539
15.4 588
15.42 543
15.44 508
15.46 495
15.48 598
15.5 520
15.52 570
15.54 557
15.56 548
15.58 577
15.6 561
15.62 588
15.64 559
15.66 535
15.68 566
15.7 552
15.72 547
15.74 575
15.76 595
15.78 567
15.8 582
15.82 565
15.84 597
15.86 561
15.88 548
15.9 567
15.92 574
15.94 567
15.96 573
15.98 572
16 548
16.02 600
16.04 610
16.06 551
16.08 535
16.1 577
16.12 574
16.14 568
16.16 572
16.18 609
16.2 594
16.22 576
16.24 587
16.26 605
16.28 633
16.3 610
16.32 592
16.34 583
16.36 580
16.38 557
16.4 598
16.42 611
16.44 606
16.46 607
16.48 636
16.5 597
16.52 614
16.54 620
16.56 610
16.58 639
16.6 649
16.62 591
16.64 656
16.66 650
16.68 642
16.7 591
16.72 629
16.74 629
16.76 630
16.78 595
16.8 616
16.82 639
16.84 629
16.86 631
16.88 655
16.9 672
16.92 674
16.94 665
16.96 654
16.98 633
17 640
17.02 660
17.04 693
17.06 681
17.08 616
17.1 651
17.12 638
17.14 647
17.16 679
17.18 685
17.2 648
17.22 677
17.24 654
17.26 678
17.28 672
17.3 703
17.32 675
17.34 650
17.36 656
17.38 630
17.4 652
17.42 675
17.44 728
17.46 658
17.48 669
17.5 720
17.52 727
17.54 676
17.56 679
17.58 721
17.6 680
17.62 755
17.64 660
17.66 655
17.68 706
17.7 714
17.72 714
17.74 651
17.76 726
17.78 683
17.8 720
17.82 685
17.84 758
17.86 710
17.88 739
17.9 702
17.92 747
17.94 696
17.96 716
17.98 735
18 709
18.02 726
18.04 738
18.06 705
18.08 757
18.1 715
18.12 748
18.14 703
18.16 724
18.18 722
18.2 719
18.22 743
18.24 773
18.26 769
18.28 773
18.3 755
18.32 780
18.34 780
18.36 781
18.38 745
18.4 766
18.42 781
18.44 742
18.46 762
18.48 763
18.5 812
18.52 758
18.54 759
18.56 820
18.58 791
18.6 813
18.62 802
18.64 832
18.66 738
18.68 824
18.7 834
18.72 744
18.74 825
18.76 755
18.78 767
18.8 802
18.82 783
18.84 787
18.86 805
18.88 812
18.9 802
18.92 803
18.94 807
18.96 764
18.98 802
19 823
19.02 787
19.04 819
19.06 797
19.08 865
19.1 820
19.12 796
19.14 832
19.16 821
19.18 798
19.2 819
19.22 771
19.24 786
19.26 863
19.28 822
19.3 799
19.32 859
19.34 840
19.36 838
19.38 866
19.4 852
19.42 852
19.44 856
19.46 812
19.48 796
19.5 797
19.52 870
19.54 819
19.56 885
19.58 833
19.6 817
19.62 840
19.64 862
19.66 857
19.68 867
19.7 850
19.72 852
19.74 849
19.76 846
19.78 850
19.8 852
19.82 895
19.84 823
19.86 837
19.88 837
19.9 834
19.92 897
19.94 846
19.96 898
19.98 883
20 855