File: xrd-UiO-67/pxrddata/7-24.ASC
3 2412
3.02 2227
3.04 2012
3.06 1908
3.08 1832
3.1 1813
3.12 1682
3.14 1684
3.16 1626
3.18 1674
3.2 1625
3.22 1578
3.24 1567
3.26 1627
3.28 1499
3.3 1465
3.32 1473
3.34 1489
3.36 1476
3.38 1423
3.4 1403
3.42 1426
3.44 1384
3.46 1423
3.48 1418
3.5 1364
3.52 1313
3.54 1317
3.56 1280
3.58 1336
3.6 1316
3.62 1262
3.64 1331
3.66 1273
3.68 1282
3.7 1269
3.72 1279
3.74 1208
3.76 1287
3.78 1237
3.8 1201
3.82 1214
3.84 1190
3.86 1290
3.88 1206
3.9 1277
3.92 1164
3.94 1211
3.96 1165
3.98 1239
4 1207
4.02 1114
4.04 1205
4.06 1143
4.08 1202
4.1 1166
4.12 1174
4.14 1172
4.16 1175
4.18 1126
4.2 1114
4.22 1133
4.24 1161
4.26 1144
4.28 1144
4.3 1132
4.32 1134
4.34 1119
4.36 1124
4.38 1076
4.4 1106
4.42 1113
4.44 1185
4.46 1156
4.48 1135
4.5 1110
4.52 1109
4.54 1136
4.56 1107
4.58 1149
4.6 1194
4.62 1143
4.64 1191
4.66 1156
4.68 1164
4.7 1207
4.72 1153
4.74 1147
4.76 1197
4.78 1139
4.8 1172
4.82 1188
4.84 1210
4.86 1192
4.88 1232
4.9 1302
4.92 1190
4.94 1266
4.96 1285
4.98 1298
5 1279
5.02 1324
5.04 1335
5.06 1337
5.08 1414
5.1 1382
5.12 1431
5.14 1431
5.16 1409
5.18 1525
5.2 1523
5.22 1609
5.24 1529
5.26 1599
5.28 1613
5.3 1608
5.32 1668
5.34 1681
5.36 1773
5.38 1856
5.4 1775
5.42 1821
5.44 2007
5.46 2029
5.48 2086
5.5 2165
5.52 2238
5.54 2335
5.56 2502
5.58 2617
5.6 2672
5.62 2780
5.64 3015
5.66 3102
5.68 3295
5.7 3528
5.72 3725
5.74 3895
5.76 3914
5.78 3706
5.8 3527
5.82 3067
5.84 2540
5.86 2308
5.88 2085
5.9 1918
5.92 1759
5.94 1664
5.96 1609
5.98 1566
6 1531
6.02 1572
6.04 1429
6.06 1458
6.08 1412
6.1 1410
6.12 1389
6.14 1429
6.16 1421
6.18 1416
6.2 1368
6.22 1437
6.24 1433
6.26 1422
6.28 1442
6.3 1503
6.32 1497
6.34 1561
6.36 1541
6.38 1590
6.4 1599
6.42 1554
6.44 1627
6.46 1665
6.48 1776
6.5 1861
6.52 1915
6.54 1959
6.56 2031
6.58 2136
6.6 2149
6.62 2288
6.64 2335
6.66 2230
6.68 2042
6.7 1874
6.72 1696
6.74 1517
6.76 1439
6.78 1283
6.8 1287
6.82 1234
6.84 1170
6.86 1215
6.88 1171
6.9 1109
6.92 1146
6.94 1180
6.96 1129
6.98 1107
7 1187
7.02 1143
7.04 1117
7.06 1143
7.08 1108
7.1 1087
7.12 1109
7.14 1136
7.16 1099
7.18 1131
7.2 1038
7.22 1146
7.24 1040
7.26 1068
7.28 1122
7.3 1092
7.32 1097
7.34 1119
7.36 1083
7.38 1076
7.4 1059
7.42 1090
7.44 1027
7.46 1024
7.48 1004
7.5 1028
7.52 1029
7.54 1064
7.56 990
7.58 991
7.6 1012
7.62 1006
7.64 982
7.66 988
7.68 1013
7.7 1004
7.72 998
7.74 930
7.76 996
7.78 999
7.8 1008
7.82 934
7.84 990
7.86 961
7.88 970
7.9 898
7.92 943
7.94 924
7.96 991
7.98 945
8 930
8.02 924
8.04 952
8.06 967
8.08 964
8.1 928
8.12 957
8.14 946
8.16 932
8.18 931
8.2 900
8.22 932
8.24 1010
8.26 943
8.28 928
8.3 975
8.32 895
8.34 897
8.36 969
8.38 933
8.4 890
8.42 937
8.44 931
8.46 948
8.48 924
8.5 934
8.52 881
8.54 914
8.56 891
8.58 919
8.6 880
8.62 882
8.64 861
8.66 950
8.68 937
8.7 921
8.72 889
8.74 887
8.76 893
8.78 916
8.8 941
8.82 957
8.84 956
8.86 971
8.88 992
8.9 951
8.92 940
8.94 955
8.96 998
8.98 1081
9 989
9.02 1059
9.04 1058
9.06 1067
9.08 1071
9.1 1137
9.12 1089
9.14 1171
9.16 1272
9.18 1274
9.2 1253
9.22 1375
9.24 1413
9.26 1565
9.28 1608
9.3 1596
9.32 1766
9.34 1832
9.36 1978
9.38 1947
9.4 1854
9.42 1707
9.44 1615
9.46 1401
9.48 1287
9.5 1234
9.52 1178
9.54 1093
9.56 1045
9.58 1027
9.6 1054
9.62 1022
9.64 1038
9.66 1041
9.68 1002
9.7 1010
9.72 977
9.74 1006
9.76 1026
9.78 966
9.8 952
9.82 1025
9.84 965
9.86 998
9.88 963
9.9 1009
9.92 981
9.94 928
9.96 902
9.98 934
10 931
10.02 909
10.04 1018
10.06 964
10.08 992
10.1 949
10.12 944
10.14 921
10.16 956
10.18 970
10.2 960
10.22 976
10.24 1018
10.26 959
10.28 927
10.3 1016
10.32 933
10.34 958
10.36 956
10.38 970
10.4 958
10.42 963
10.44 968
10.46 999
10.48 945
10.5 1007
10.52 1036
10.54 1012
10.56 1049
10.58 1038
10.6 1043
10.62 1069
10.64 1069
10.66 1041
10.68 1109
10.7 1080
10.72 1139
10.74 1173
10.76 1165
10.78 1198
10.8 1231
10.82 1281
10.84 1337
10.86 1313
10.88 1372
10.9 1509
10.92 1609
10.94 1628
10.96 1799
10.98 1733
11 1736
11.02 1703
11.04 1517
11.06 1409
11.08 1333
11.1 1171
11.12 1239
11.14 1151
11.16 1152
11.18 1108
11.2 1133
11.22 1111
11.24 1189
11.26 1113
11.28 1146
11.3 1190
11.32 1202
11.34 1210
11.36 1164
11.38 1208
11.4 1202
11.42 1310
11.44 1337
11.46 1331
11.48 1371
11.5 1346
11.52 1265
11.54 1235
11.56 1172
11.58 1106
11.6 1075
11.62 1059
11.64 975
11.66 1066
11.68 1042
11.7 1018
11.72 1007
11.74 961
11.76 1006
11.78 1042
11.8 958
11.82 966
11.84 1029
11.86 988
11.88 1017
11.9 1031
11.92 1001
11.94 998
11.96 959
11.98 1029
12 973
12.02 1031
12.04 1003
12.06 960
12.08 980
12.1 1000
12.12 943
12.14 1039
12.16 1027
12.18 961
12.2 1010
12.22 1002
12.24 921
12.26 985
12.28 937
12.3 958
12.32 1017
12.34 1008
12.36 956
12.38 985
12.4 967
12.42 1011
12.44 1010
12.46 988
12.48 1003
12.5 1011
12.52 988
12.54 993
12.56 932
12.58 1049
12.6 957
12.62 954
12.64 942
12.66 991
12.68 995
12.7 1001
12.72 999
12.74 1050
12.76 1003
12.78 930
12.8 1043
12.82 1076
12.84 1026
12.86 1054
12.88 1006
12.9 1001
12.92 1068
12.94 996
12.96 1036
12.98 1068
13 1044
13.02 1002
13.04 1049
13.06 1026
13.08 1078
13.1 1091
13.12 1147
13.14 1089
13.16 1134
13.18 1162
13.2 1124
13.22 1125
13.24 1203
13.26 1183
13.28 1167
13.3 1168
13.32 1149
13.34 1115
13.36 1041
13.38 1072
13.4 1085
13.42 1122
13.44 1118
13.46 1099
13.48 1118
13.5 1080
13.52 1081
13.54 1101
13.56 1057
13.58 1124
13.6 1103
13.62 1049
13.64 1115
13.66 1100
13.68 1098
13.7 1182
13.72 1148
13.74 1135
13.76 1125
13.78 1157
13.8 1079
13.82 1074
13.84 1116
13.86 1157
13.88 1165
13.9 1133
13.92 1141
13.94 1098
13.96 1090
13.98 1133
14 1186
14.02 1181
14.04 1225
14.06 1175
14.08 1195
14.1 1194
14.12 1166
14.14 1164
14.16 1149
14.18 1185
14.2 1242
14.22 1239
14.24 1190
14.26 1230
14.28 1240
14.3 1311
14.32 1291
14.34 1300
14.36 1281
14.38 1384
14.4 1390
14.42 1338
14.44 1381
14.46 1356
14.48 1294
14.5 1350
14.52 1314
14.54 1333
14.56 1259
14.58 1302
14.6 1312
14.62 1270
14.64 1274
14.66 1285
14.68 1245
14.7 1274
14.72 1289
14.74 1256
14.76 1273
14.78 1241
14.8 1236
14.82 1253
14.84 1290
14.86 1341
14.88 1280
14.9 1321
14.92 1305
14.94 1280
14.96 1315
14.98 1275
15 1317
15.02 1318
15.04 1247
15.06 1344
15.08 1325
15.1 1342
15.12 1325
15.14 1313
15.16 1277
15.18 1363
15.2 1295
15.22 1280
15.24 1350
15.26 1367
15.28 1353
15.3 1323
15.32 1290
15.34 1291
15.36 1338
15.38 1378
15.4 1347
15.42 1396
15.44 1375
15.46 1398
15.48 1455
15.5 1328
15.52 1440
15.54 1432
15.56 1412
15.58 1474
15.6 1375
15.62 1414
15.64 1473
15.66 1402
15.68 1451
15.7 1441
15.72 1484
15.74 1452
15.76 1403
15.78 1412
15.8 1418
15.82 1533
15.84 1435
15.86 1470
15.88 1478
15.9 1489
15.92 1470
15.94 1465
15.96 1501
15.98 1521
16 1510
16.02 1556
16.04 1545
16.06 1465
16.08 1505
16.1 1517
16.12 1494
16.14 1582
16.16 1539
16.18 1508
16.2 1620
16.22 1596
16.24 1487
16.26 1507
16.28 1553
16.3 1605
16.32 1549
16.34 1582
16.36 1526
16.38 1603
16.4 1600
16.42 1518
16.44 1572
16.46 1596
16.48 1531
16.5 1612
16.52 1701
16.54 1667
16.56 1608
16.58 1683
16.6 1622
16.62 1639
16.64 1698
16.66 1701
16.68 1640
16.7 1683
16.72 1665
16.74 1725
16.76 1618
16.78 1747
16.8 1738
16.82 1748
16.84 1742
16.86 1766
16.88 1722
16.9 1774
16.92 1784
16.94 1791
16.96 1837
16.98 1764
17 1761
17.02 1895
17.04 1883
17.06 1793
17.08 1884
17.1 1849
17.12 1887
17.14 1886
17.16 1894
17.18 1961
17.2 1952
17.22 2004
17.24 2004
17.26 1980
17.28 2002
17.3 1892
17.32 1892
17.34 1902
17.36 1880
17.38 1915
17.4 1880
17.42 1875
17.44 1848
17.46 1891
17.48 1835
17.5 1848
17.52 1927
17.54 1936
17.56 1988
17.58 1951
17.6 1913
17.62 1940
17.64 1977
17.66 1957
17.68 1854
17.7 1996
17.72 1964
17.74 1933
17.76 1896
17.78 1968
17.8 1957
17.82 2009
17.84 1989
17.86 1992
17.88 1951
17.9 1999
17.92 2076
17.94 1992
17.96 1971
17.98 2025
18 2054
18.02 2032
18.04 2055
18.06 2010
18.08 2032
18.1 2045
18.12 2140
18.14 1943
18.16 2088
18.18 2039
18.2 2143
18.22 2124
18.24 2104
18.26 2103
18.28 2056
18.3 2080
18.32 2150
18.34 2094
18.36 2110
18.38 2131
18.4 2062
18.42 2166
18.44 2132
18.46 2113
18.48 2072
18.5 2220
18.52 2228
18.54 2215
18.56 2277
18.58 2195
18.6 2196
18.62 2167
18.64 2227
18.66 2203
18.68 2255
18.7 2299
18.72 2208
18.74 2243
18.76 2271
18.78 2271
18.8 2225
18.82 2233
18.84 2200
18.86 2183
18.88 2254
18.9 2253
18.92 2258
18.94 2295
18.96 2364
18.98 2267
19 2275
19.02 2315
19.04 2325
19.06 2292
19.08 2308
19.1 2365
19.12 2358
19.14 2320
19.16 2344
19.18 2333
19.2 2470
19.22 2367
19.24 2362
19.26 2402
19.28 2398
19.3 2319
19.32 2396
19.34 2426
19.36 2520
19.38 2419
19.4 2420
19.42 2521
19.44 2516
19.46 2533
19.48 2475
19.5 2590
19.52 2659
19.54 2705
19.56 2752
19.58 2830
19.6 2745
19.62 2803
19.64 2831
19.66 2786
19.68 2711
19.7 2832
19.72 2676
19.74 2663
19.76 2665
19.78 2736
19.8 2818
19.82 2795
19.84 2753
19.86 2801
19.88 2914
19.9 2896
19.92 2884
19.94 2734
19.96 2681
19.98 2667
20 2574