File: xrd-UiO-67/pxrddata/7-28.ASC
3 2008
3.02 1918
3.04 1763
3.06 1648
3.08 1590
3.1 1495
3.12 1428
3.14 1405
3.16 1427
3.18 1401
3.2 1333
3.22 1325
3.24 1344
3.26 1381
3.28 1341
3.3 1335
3.32 1231
3.34 1334
3.36 1222
3.38 1237
3.4 1222
3.42 1245
3.44 1230
3.46 1195
3.48 1119
3.5 1175
3.52 1177
3.54 1119
3.56 1158
3.58 1167
3.6 1087
3.62 1163
3.64 1168
3.66 1115
3.68 1095
3.7 1063
3.72 1097
3.74 1075
3.76 1055
3.78 1102
3.8 1063
3.82 1006
3.84 1028
3.86 1008
3.88 1019
3.9 1035
3.92 1055
3.94 1046
3.96 1013
3.98 1009
4 975
4.02 995
4.04 961
4.06 997
4.08 1030
4.1 996
4.12 982
4.14 964
4.16 971
4.18 991
4.2 927
4.22 934
4.24 964
4.26 955
4.28 966
4.3 928
4.32 948
4.34 942
4.36 940
4.38 908
4.4 934
4.42 938
4.44 969
4.46 994
4.48 940
4.5 880
4.52 907
4.54 948
4.56 910
4.58 912
4.6 934
4.62 940
4.64 898
4.66 888
4.68 926
4.7 959
4.72 927
4.74 925
4.76 909
4.78 909
4.8 937
4.82 943
4.84 921
4.86 939
4.88 921
4.9 959
4.92 889
4.94 961
4.96 985
4.98 984
5 985
5.02 926
5.04 945
5.06 969
5.08 927
5.1 935
5.12 928
5.14 917
5.16 971
5.18 974
5.2 962
5.22 970
5.24 946
5.26 971
5.28 961
5.3 935
5.32 986
5.34 981
5.36 1008
5.38 983
5.4 1015
5.42 1014
5.44 1040
5.46 1037
5.48 1003
5.5 1031
5.52 1016
5.54 1014
5.56 975
5.58 995
5.6 1003
5.62 1028
5.64 1012
5.66 1026
5.68 1024
5.7 1035
5.72 988
5.74 1059
5.76 1060
5.78 1049
5.8 1044
5.82 1041
5.84 985
5.86 1012
5.88 1047
5.9 1056
5.92 1068
5.94 978
5.96 1106
5.98 1038
6 1042
6.02 1040
6.04 970
6.06 1032
6.08 1000
6.1 1022
6.12 1045
6.14 1040
6.16 1025
6.18 1011
6.2 1051
6.22 1040
6.24 1032
6.26 953
6.28 1004
6.3 992
6.32 1068
6.34 1032
6.36 1008
6.38 1078
6.4 977
6.42 1036
6.44 986
6.46 969
6.48 1011
6.5 969
6.52 970
6.54 926
6.56 918
6.58 962
6.6 990
6.62 920
6.64 914
6.66 941
6.68 946
6.7 924
6.72 928
6.74 931
6.76 944
6.78 871
6.8 890
6.82 876
6.84 895
6.86 898
6.88 909
6.9 865
6.92 838
6.94 830
6.96 812
6.98 843
7 861
7.02 827
7.04 823
7.06 849
7.08 854
7.1 854
7.12 852
7.14 860
7.16 785
7.18 816
7.2 831
7.22 763
7.24 790
7.26 828
7.28 825
7.3 756
7.32 748
7.34 802
7.36 742
7.38 764
7.4 806
7.42 801
7.44 788
7.46 775
7.48 760
7.5 759
7.52 763
7.54 739
7.56 752
7.58 790
7.6 704
7.62 770
7.64 772
7.66 788
7.68 768
7.7 744
7.72 729
7.74 749
7.76 736
7.78 738
7.8 708
7.82 767
7.84 772
7.86 681
7.88 752
7.9 727
7.92 718
7.94 749
7.96 730
7.98 732
8 698
8.02 728
8.04 733
8.06 717
8.08 701
8.1 738
8.12 740
8.14 746
8.16 718
8.18 697
8.2 710
8.22 724
8.24 723
8.26 745
8.28 664
8.3 700
8.32 684
8.34 738
8.36 683
8.38 688
8.4 679
8.42 691
8.44 732
8.46 742
8.48 678
8.5 673
8.52 689
8.54 698
8.56 732
8.58 713
8.6 671
8.62 681
8.64 662
8.66 698
8.68 694
8.7 744
8.72 718
8.74 732
8.76 712
8.78 730
8.8 649
8.82 695
8.84 731
8.86 686
8.88 654
8.9 701
8.92 701
8.94 665
8.96 665
8.98 703
9 671
9.02 696
9.04 697
9.06 672
9.08 662
9.1 665
9.12 654
9.14 706
9.16 684
9.18 708
9.2 690
9.22 682
9.24 702
9.26 653
9.28 685
9.3 670
9.32 703
9.34 661
9.36 709
9.38 694
9.4 674
9.42 692
9.44 670
9.46 708
9.48 678
9.5 683
9.52 716
9.54 637
9.56 707
9.58 699
9.6 644
9.62 731
9.64 695
9.66 748
9.68 703
9.7 740
9.72 689
9.74 661
9.76 721
9.78 691
9.8 672
9.82 709
9.84 680
9.86 628
9.88 649
9.9 696
9.92 689
9.94 727
9.96 683
9.98 671
10 693
10.02 730
10.04 704
10.06 706
10.08 689
10.1 732
10.12 694
10.14 726
10.16 692
10.18 692
10.2 689
10.22 721
10.24 730
10.26 710
10.28 703
10.3 752
10.32 689
10.34 690
10.36 753
10.38 707
10.4 716
10.42 735
10.44 726
10.46 677
10.48 718
10.5 703
10.52 727
10.54 713
10.56 704
10.58 722
10.6 759
10.62 749
10.64 744
10.66 734
10.68 748
10.7 738
10.72 696
10.74 726
10.76 710
10.78 692
10.8 743
10.82 676
10.84 765
10.86 692
10.88 726
10.9 705
10.92 767
10.94 686
10.96 793
10.98 721
11 748
11.02 754
11.04 731
11.06 746
11.08 729
11.1 702
11.12 768
11.14 730
11.16 748
11.18 789
11.2 772
11.22 770
11.24 733
11.26 723
11.28 780
11.3 746
11.32 778
11.34 767
11.36 769
11.38 739
11.4 771
11.42 765
11.44 716
11.46 740
11.48 748
11.5 789
11.52 790
11.54 755
11.56 788
11.58 765
11.6 713
11.62 762
11.64 794
11.66 767
11.68 780
11.7 753
11.72 749
11.74 831
11.76 773
11.78 738
11.8 784
11.82 806
11.84 751
11.86 794
11.88 769
11.9 787
11.92 789
11.94 810
11.96 790
11.98 797
12 753
12.02 756
12.04 747
12.06 817
12.08 829
12.1 774
12.12 780
12.14 773
12.16 798
12.18 733
12.2 802
12.22 757
12.24 757
12.26 733
12.28 782
12.3 800
12.32 764
12.34 765
12.36 780
12.38 803
12.4 772
12.42 749
12.44 801
12.46 751
12.48 795
12.5 802
12.52 768
12.54 773
12.56 797
12.58 761
12.6 833
12.62 822
12.64 804
12.66 789
12.68 824
12.7 812
12.72 809
12.74 799
12.76 843
12.78 809
12.8 802
12.82 787
12.84 790
12.86 767
12.88 790
12.9 759
12.92 793
12.94 840
12.96 822
12.98 800
13 842
13.02 824
13.04 862
13.06 797
13.08 850
13.1 831
13.12 794
13.14 829
13.16 841
13.18 874
13.2 839
13.22 838
13.24 906
13.26 825
13.28 860
13.3 841
13.32 776
13.34 851
13.36 879
13.38 805
13.4 824
13.42 843
13.44 886
13.46 803
13.48 807
13.5 867
13.52 871
13.54 843
13.56 795
13.58 851
13.6 806
13.62 815
13.64 823
13.66 825
13.68 845
13.7 870
13.72 822
13.74 828
13.76 811
13.78 832
13.8 898
13.82 863
13.84 877
13.86 891
13.88 859
13.9 852
13.92 815
13.94 891
13.96 842
13.98 899
14 868
14.02 889
14.04 882
14.06 836
14.08 829
14.1 912
14.12 923
14.14 898
14.16 869
14.18 900
14.2 898
14.22 859
14.24 921
14.26 879
14.28 890
14.3 922
14.32 902
14.34 915
14.36 876
14.38 866
14.4 888
14.42 941
14.44 930
14.46 945
14.48 943
14.5 920
14.52 961
14.54 952
14.56 916
14.58 934
14.6 927
14.62 981
14.64 984
14.66 913
14.68 979
14.7 950
14.72 950
14.74 924
14.76 965
14.78 934
14.8 926
14.82 979
14.84 957
14.86 987
14.88 976
14.9 993
14.92 1003
14.94 963
14.96 985
14.98 1005
15 990
15.02 981
15.04 1025
15.06 1006
15.08 980
15.1 1037
15.12 1010
15.14 1021
15.16 1018
15.18 995
15.2 1013
15.22 1006
15.24 983
15.26 1050
15.28 1048
15.3 1063
15.32 1041
15.34 1041
15.36 1067
15.38 1047
15.4 1049
15.42 1052
15.44 1135
15.46 1092
15.48 1030
15.5 1071
15.52 1063
15.54 1081
15.56 1090
15.58 1140
15.6 1145
15.62 1115
15.64 1107
15.66 1134
15.68 1143
15.7 1116
15.72 1125
15.74 1094
15.76 1145
15.78 1111
15.8 1133
15.82 1193
15.84 1094
15.86 1116
15.88 1144
15.9 1180
15.92 1135
15.94 1209
15.96 1173
15.98 1118
16 1173
16.02 1205
16.04 1204
16.06 1175
16.08 1181
16.1 1215
16.12 1197
16.14 1190
16.16 1203
16.18 1255
16.2 1196
16.22 1183
16.24 1229
16.26 1178
16.28 1199
16.3 1197
16.32 1236
16.34 1253
16.36 1270
16.38 1284
16.4 1233
16.42 1347
16.44 1290
16.46 1309
16.48 1345
16.5 1255
16.52 1281
16.54 1270
16.56 1317
16.58 1306
16.6 1290
16.62 1262
16.64 1344
16.66 1325
16.68 1363
16.7 1346
16.72 1288
16.74 1403
16.76 1318
16.78 1374
16.8 1358
16.82 1439
16.84 1459
16.86 1415
16.88 1394
16.9 1396
16.92 1399
16.94 1438
16.96 1427
16.98 1501
17 1478
17.02 1581
17.04 1471
17.06 1583
17.08 1550
17.1 1463
17.12 1463
17.14 1478
17.16 1472
17.18 1485
17.2 1504
17.22 1475
17.24 1520
17.26 1481
17.28 1513
17.3 1444
17.32 1576
17.34 1527
17.36 1462
17.38 1518
17.4 1495
17.42 1504
17.44 1587
17.46 1522
17.48 1552
17.5 1560
17.52 1596
17.54 1560
17.56 1563
17.58 1573
17.6 1539
17.62 1595
17.64 1559
17.66 1581
17.68 1685
17.7 1621
17.72 1604
17.74 1656
17.76 1564
17.78 1568
17.8 1684
17.82 1701
17.84 1653
17.86 1670
17.88 1687
17.9 1659
17.92 1692
17.94 1689
17.96 1657
17.98 1777
18 1679
18.02 1690
18.04 1683
18.06 1722
18.08 1669
18.1 1735
18.12 1722
18.14 1786
18.16 1752
18.18 1723
18.2 1704
18.22 1737
18.24 1822
18.26 1726
18.28 1745
18.3 1781
18.32 1714
18.34 1719
18.36 1813
18.38 1818
18.4 1745
18.42 1759
18.44 1837
18.46 1781
18.48 1769
18.5 1906
18.52 1872
18.54 1800
18.56 1866
18.58 1836
18.6 1904
18.62 1846
18.64 1887
18.66 1906
18.68 1856
18.7 1826
18.72 1922
18.74 1862
18.76 1872
18.78 1861
18.8 1968
18.82 1900
18.84 1958
18.86 1936
18.88 1937
18.9 1880
18.92 1991
18.94 1990
18.96 1924
18.98 1926
19 1924
19.02 1976
19.04 1918
19.06 2026
19.08 1903
19.1 1842
19.12 1955
19.14 2020
19.16 1937
19.18 1990
19.2 2003
19.22 2049
19.24 1962
19.26 1969
19.28 1942
19.3 1913
19.32 1927
19.34 2043
19.36 2002
19.38 2017
19.4 1964
19.42 2057
19.44 1928
19.46 2038
19.48 2012
19.5 2031
19.52 1999
19.54 2025
19.56 2043
19.58 1999
19.6 2002
19.62 2005
19.64 1979
19.66 2043
19.68 2000
19.7 2037
19.72 2041
19.74 2010
19.76 2004
19.78 2011
19.8 2069
19.82 2074
19.84 2041
19.86 2021
19.88 2015
19.9 2051
19.92 2068
19.94 2038
19.96 2105
19.98 2079
20 2033