File: xrd-UiO-67/pxrddata/7-29.ASC
3 1971
3.02 1862
3.04 1742
3.06 1635
3.08 1553
3.1 1487
3.12 1415
3.14 1381
3.16 1345
3.18 1319
3.2 1337
3.22 1332
3.24 1294
3.26 1318
3.28 1294
3.3 1278
3.32 1229
3.34 1219
3.36 1230
3.38 1225
3.4 1271
3.42 1176
3.44 1153
3.46 1139
3.48 1132
3.5 1151
3.52 1128
3.54 1168
3.56 1133
3.58 1085
3.6 1040
3.62 1100
3.64 1054
3.66 1045
3.68 1058
3.7 1060
3.72 1027
3.74 1039
3.76 1009
3.78 984
3.8 1029
3.82 1060
3.84 990
3.86 982
3.88 976
3.9 989
3.92 1019
3.94 1008
3.96 994
3.98 983
4 961
4.02 928
4.04 941
4.06 931
4.08 901
4.1 953
4.12 927
4.14 941
4.16 885
4.18 915
4.2 914
4.22 919
4.24 916
4.26 839
4.28 866
4.3 884
4.32 873
4.34 870
4.36 868
4.38 840
4.4 850
4.42 862
4.44 848
4.46 823
4.48 858
4.5 797
4.52 851
4.54 885
4.56 864
4.58 883
4.6 909
4.62 859
4.64 902
4.66 851
4.68 820
4.7 859
4.72 908
4.74 933
4.76 844
4.78 887
4.8 887
4.82 856
4.84 943
4.86 869
4.88 894
4.9 864
4.92 914
4.94 872
4.96 857
4.98 931
5 909
5.02 953
5.04 958
5.06 1020
5.08 966
5.1 938
5.12 1019
5.14 1009
5.16 987
5.18 1019
5.2 1097
5.22 1061
5.24 1150
5.26 1077
5.28 1120
5.3 1151
5.32 1294
5.34 1248
5.36 1255
5.38 1293
5.4 1306
5.42 1340
5.44 1329
5.46 1369
5.48 1423
5.5 1436
5.52 1564
5.54 1500
5.56 1553
5.58 1608
5.6 1579
5.62 1620
5.64 1677
5.66 1675
5.68 1611
5.7 1711
5.72 1712
5.74 1768
5.76 1783
5.78 1809
5.8 1777
5.82 1754
5.84 1811
5.86 1720
5.88 1647
5.9 1649
5.92 1702
5.94 1572
5.96 1584
5.98 1468
6 1414
6.02 1441
6.04 1362
6.06 1375
6.08 1346
6.1 1215
6.12 1141
6.14 1180
6.16 1109
6.18 1103
6.2 1144
6.22 1044
6.24 1019
6.26 1004
6.28 1040
6.3 998
6.32 986
6.34 1002
6.36 934
6.38 946
6.4 993
6.42 961
6.44 899
6.46 945
6.48 934
6.5 930
6.52 941
6.54 940
6.56 886
6.58 878
6.6 920
6.62 911
6.64 889
6.66 934
6.68 898
6.7 911
6.72 889
6.74 874
6.76 836
6.78 860
6.8 855
6.82 848
6.84 801
6.86 783
6.88 722
6.9 788
6.92 808
6.94 730
6.96 717
6.98 741
7 753
7.02 744
7.04 730
7.06 685
7.08 752
7.1 707
7.12 713
7.14 672
7.16 677
7.18 713
7.2 705
7.22 667
7.24 674
7.26 694
7.28 704
7.3 706
7.32 684
7.34 656
7.36 702
7.38 704
7.4 725
7.42 684
7.44 642
7.46 652
7.48 702
7.5 663
7.52 684
7.54 660
7.56 663
7.58 671
7.6 668
7.62 661
7.64 716
7.66 703
7.68 679
7.7 671
7.72 689
7.74 661
7.76 659
7.78 642
7.8 609
7.82 620
7.84 647
7.86 682
7.88 687
7.9 630
7.92 663
7.94 690
7.96 688
7.98 679
8 670
8.02 620
8.04 628
8.06 632
8.08 650
8.1 632
8.12 621
8.14 654
8.16 620
8.18 597
8.2 645
8.22 665
8.24 633
8.26 651
8.28 626
8.3 659
8.32 653
8.34 625
8.36 669
8.38 643
8.4 682
8.42 641
8.44 661
8.46 646
8.48 661
8.5 646
8.52 653
8.54 632
8.56 638
8.58 664
8.6 648
8.62 678
8.64 669
8.66 661
8.68 638
8.7 705
8.72 633
8.74 665
8.76 645
8.78 656
8.8 674
8.82 680
8.84 648
8.86 646
8.88 678
8.9 709
8.92 667
8.94 654
8.96 637
8.98 690
9 704
9.02 692
9.04 707
9.06 683
9.08 717
9.1 709
9.12 746
9.14 742
9.16 760
9.18 781
9.2 768
9.22 747
9.24 820
9.26 790
9.28 820
9.3 852
9.32 837
9.34 826
9.36 848
9.38 884
9.4 887
9.42 870
9.44 909
9.46 961
9.48 880
9.5 919
9.52 841
9.54 868
9.56 859
9.58 828
9.6 840
9.62 790
9.64 780
9.66 770
9.68 757
9.7 810
9.72 760
9.74 735
9.76 746
9.78 714
9.8 694
9.82 702
9.84 666
9.86 737
9.88 723
9.9 710
9.92 683
9.94 641
9.96 666
9.98 653
10 676
10.02 711
10.04 668
10.06 702
10.08 742
10.1 700
10.12 696
10.14 666
10.16 662
10.18 700
10.2 668
10.22 727
10.24 705
10.26 783
10.28 719
10.3 701
10.32 757
10.34 695
10.36 702
10.38 709
10.4 737
10.42 720
10.44 694
10.46 710
10.48 689
10.5 733
10.52 693
10.54 671
10.56 685
10.58 737
10.6 719
10.62 726
10.64 723
10.66 762
10.68 726
10.7 724
10.72 742
10.74 727
10.76 725
10.78 752
10.8 757
10.82 782
10.84 834
10.86 811
10.88 785
10.9 809
10.92 794
10.94 856
10.96 895
10.98 804
11 781
11.02 799
11.04 850
11.06 823
11.08 873
11.1 797
11.12 873
11.14 815
11.16 838
11.18 800
11.2 814
11.22 752
11.24 770
11.26 752
11.28 754
11.3 751
11.32 769
11.34 758
11.36 744
11.38 760
11.4 755
11.42 728
11.44 719
11.46 743
11.48 788
11.5 723
11.52 745
11.54 694
11.56 734
11.58 744
11.6 661
11.62 734
11.64 722
11.66 688
11.68 705
11.7 726
11.72 729
11.74 652
11.76 702
11.78 699
11.8 661
11.82 695
11.84 710
11.86 682
11.88 670
11.9 645
11.92 683
11.94 685
11.96 653
11.98 675
12 609
12.02 707
12.04 667
12.06 668
12.08 681
12.1 708
12.12 687
12.14 652
12.16 696
12.18 707
12.2 651
12.22 633
12.24 678
12.26 651
12.28 671
12.3 674
12.32 645
12.34 649
12.36 682
12.38 646
12.4 639
12.42 672
12.44 629
12.46 608
12.48 701
12.5 674
12.52 624
12.54 654
12.56 645
12.58 617
12.6 665
12.62 678
12.64 647
12.66 668
12.68 663
12.7 672
12.72 652
12.74 661
12.76 675
12.78 643
12.8 695
12.82 672
12.84 671
12.86 665
12.88 709
12.9 656
12.92 735
12.94 699
12.96 656
12.98 695
13 672
13.02 735
13.04 714
13.06 639
13.08 681
13.1 665
13.12 691
13.14 661
13.16 695
13.18 699
13.2 691
13.22 697
13.24 710
13.26 710
13.28 676
13.3 658
13.32 708
13.34 673
13.36 738
13.38 725
13.4 750
13.42 708
13.44 672
13.46 718
13.48 740
13.5 746
13.52 744
13.54 703
13.56 707
13.58 726
13.6 691
13.62 708
13.64 694
13.66 719
13.68 730
13.7 750
13.72 721
13.74 761
13.76 728
13.78 717
13.8 760
13.82 746
13.84 716
13.86 741
13.88 721
13.9 747
13.92 741
13.94 726
13.96 765
13.98 704
14 694
14.02 723
14.04 752
14.06 759
14.08 760
14.1 744
14.12 778
14.14 774
14.16 741
14.18 732
14.2 752
14.22 862
14.24 780
14.26 805
14.28 775
14.3 797
14.32 772
14.34 846
14.36 790
14.38 787
14.4 809
14.42 815
14.44 835
14.46 806
14.48 836
14.5 822
14.52 824
14.54 834
14.56 849
14.58 777
14.6 832
14.62 853
14.64 827
14.66 857
14.68 876
14.7 879
14.72 828
14.74 807
14.76 833
14.78 852
14.8 802
14.82 859
14.84 786
14.86 829
14.88 820
14.9 825
14.92 832
14.94 845
14.96 835
14.98 838
15 824
15.02 853
15.04 815
15.06 863
15.08 820
15.1 836
15.12 869
15.14 890
15.16 839
15.18 861
15.2 815
15.22 894
15.24 833
15.26 830
15.28 887
15.3 838
15.32 893
15.34 877
15.36 839
15.38 855
15.4 876
15.42 917
15.44 924
15.46 853
15.48 895
15.5 911
15.52 886
15.54 866
15.56 877
15.58 920
15.6 900
15.62 924
15.64 892
15.66 906
15.68 941
15.7 941
15.72 886
15.74 876
15.76 968
15.78 920
15.8 944
15.82 921
15.84 949
15.86 925
15.88 932
15.9 945
15.92 955
15.94 956
15.96 961
15.98 989
16 954
16.02 959
16.04 965
16.06 949
16.08 999
16.1 958
16.12 1016
16.14 968
16.16 958
16.18 978
16.2 1045
16.22 1009
16.24 1000
16.26 1029
16.28 989
16.3 972
16.32 989
16.34 1060
16.36 1014
16.38 1056
16.4 994
16.42 1035
16.44 1092
16.46 997
16.48 1033
16.5 1091
16.52 1072
16.54 1009
16.56 1038
16.58 1060
16.6 1097
16.62 1066
16.64 1005
16.66 1105
16.68 1123
16.7 1097
16.72 1112
16.74 1079
16.76 1090
16.78 1104
16.8 1130
16.82 1117
16.84 1147
16.86 1127
16.88 1132
16.9 1125
16.92 1135
16.94 1080
16.96 1117
16.98 1199
17 1089
17.02 1127
17.04 1147
17.06 1127
17.08 1230
17.1 1101
17.12 1113
17.14 1165
17.16 1173
17.18 1205
17.2 1178
17.22 1143
17.24 1174
17.26 1188
17.28 1182
17.3 1214
17.32 1205
17.34 1196
17.36 1241
17.38 1237
17.4 1191
17.42 1233
17.44 1208
17.46 1292
17.48 1249
17.5 1267
17.52 1301
17.54 1216
17.56 1287
17.58 1245
17.6 1366
17.62 1308
17.64 1258
17.66 1295
17.68 1302
17.7 1258
17.72 1300
17.74 1265
17.76 1343
17.78 1254
17.8 1226
17.82 1308
17.84 1199
17.86 1328
17.88 1317
17.9 1295
17.92 1338
17.94 1356
17.96 1324
17.98 1315
18 1367
18.02 1340
18.04 1284
18.06 1377
18.08 1349
18.1 1354
18.12 1310
18.14 1313
18.16 1380
18.18 1343
18.2 1427
18.22 1405
18.24 1399
18.26 1336
18.28 1396
18.3 1418
18.32 1357
18.34 1433
18.36 1376
18.38 1395
18.4 1401
18.42 1467
18.44 1504
18.46 1470
18.48 1444
18.5 1470
18.52 1401
18.54 1432
18.56 1393
18.58 1427
18.6 1482
18.62 1498
18.64 1507
18.66 1469
18.68 1511
18.7 1484
18.72 1492
18.74 1555
18.76 1476
18.78 1505
18.8 1503
18.82 1547
18.84 1477
18.86 1551
18.88 1492
18.9 1532
18.92 1539
18.94 1514
18.96 1578
18.98 1617
19 1588
19.02 1584
19.04 1593
19.06 1548
19.08 1555
19.1 1565
19.12 1543
19.14 1604
19.16 1606
19.18 1629
19.2 1619
19.22 1644
19.24 1684
19.26 1602
19.28 1669
19.3 1559
19.32 1649
19.34 1644
19.36 1692
19.38 1620
19.4 1721
19.42 1694
19.44 1729
19.46 1646
19.48 1650
19.5 1722
19.52 1661
19.54 1742
19.56 1762
19.58 1745
19.6 1706
19.62 1725
19.64 1776
19.66 1770
19.68 1786
19.7 1738
19.72 1756
19.74 1842
19.76 1858
19.78 1807
19.8 1810
19.82 1861
19.84 1783
19.86 1755
19.88 1775
19.9 1795
19.92 1793
19.94 1818
19.96 1779
19.98 1791
20 1765