File: xrd-UiO-67/pxrddata/7-3.ASC
3 2283
3.02 2226
3.04 2043
3.06 1911
3.08 1860
3.1 1833
3.12 1810
3.14 1935
3.16 1995
3.18 1973
3.2 1994
3.22 2040
3.24 1926
3.26 1907
3.28 1931
3.3 1802
3.32 1795
3.34 1839
3.36 1740
3.38 1598
3.4 1622
3.42 1622
3.44 1606
3.46 1639
3.48 1594
3.5 1550
3.52 1520
3.54 1526
3.56 1467
3.58 1437
3.6 1457
3.62 1476
3.64 1408
3.66 1465
3.68 1394
3.7 1294
3.72 1294
3.74 1351
3.76 1296
3.78 1353
3.8 1356
3.82 1382
3.84 1298
3.86 1252
3.88 1265
3.9 1266
3.92 1157
3.94 1223
3.96 1202
3.98 1159
4 1210
4.02 1187
4.04 1264
4.06 1142
4.08 1208
4.1 1193
4.12 1151
4.14 1128
4.16 1101
4.18 1171
4.2 1107
4.22 1141
4.24 1140
4.26 1167
4.28 1100
4.3 1088
4.32 1026
4.34 1042
4.36 1077
4.38 1086
4.4 1071
4.42 994
4.44 1023
4.46 1028
4.48 1053
4.5 1027
4.52 992
4.54 957
4.56 1061
4.58 982
4.6 1000
4.62 981
4.64 1033
4.66 960
4.68 966
4.7 1018
4.72 941
4.74 986
4.76 937
4.78 889
4.8 943
4.82 947
4.84 954
4.86 953
4.88 903
4.9 976
4.92 922
4.94 937
4.96 934
4.98 958
5 909
5.02 896
5.04 932
5.06 901
5.08 910
5.1 854
5.12 947
5.14 900
5.16 902
5.18 847
5.2 863
5.22 890
5.24 857
5.26 912
5.28 867
5.3 828
5.32 854
5.34 884
5.36 907
5.38 848
5.4 888
5.42 816
5.44 880
5.46 889
5.48 903
5.5 872
5.52 840
5.54 851
5.56 837
5.58 865
5.6 860
5.62 864
5.64 844
5.66 829
5.68 873
5.7 843
5.72 879
5.74 817
5.76 906
5.78 850
5.8 846
5.82 875
5.84 860
5.86 825
5.88 862
5.9 839
5.92 884
5.94 793
5.96 857
5.98 836
6 848
6.02 820
6.04 886
6.06 864
6.08 820
6.1 839
6.12 822
6.14 789
6.16 851
6.18 815
6.2 780
6.22 860
6.24 860
6.26 870
6.28 843
6.3 801
6.32 804
6.34 870
6.36 819
6.38 884
6.4 820
6.42 831
6.44 828
6.46 855
6.48 866
6.5 810
6.52 822
6.54 798
6.56 837
6.58 848
6.6 851
6.62 804
6.64 835
6.66 812
6.68 803
6.7 844
6.72 787
6.74 768
6.76 869
6.78 835
6.8 831
6.82 837
6.84 849
6.86 835
6.88 786
6.9 817
6.92 866
6.94 797
6.96 811
6.98 878
7 825
7.02 801
7.04 815
7.06 790
7.08 852
7.1 800
7.12 823
7.14 794
7.16 826
7.18 853
7.2 799
7.22 795
7.24 770
7.26 805
7.28 838
7.3 803
7.32 801
7.34 809
7.36 816
7.38 793
7.4 793
7.42 825
7.44 844
7.46 848
7.48 808
7.5 862
7.52 811
7.54 811
7.56 836
7.58 861
7.6 795
7.62 793
7.64 824
7.66 850
7.68 826
7.7 787
7.72 815
7.74 814
7.76 835
7.78 842
7.8 845
7.82 886
7.84 815
7.86 833
7.88 809
7.9 786
7.92 827
7.94 783
7.96 809
7.98 837
8 792
8.02 830
8.04 845
8.06 808
8.08 726
8.1 781
8.12 855
8.14 819
8.16 810
8.18 838
8.2 799
8.22 827
8.24 846
8.26 836
8.28 858
8.3 791
8.32 794
8.34 772
8.36 812
8.38 809
8.4 793
8.42 816
8.44 848
8.46 809
8.48 791
8.5 821
8.52 771
8.54 808
8.56 801
8.58 749
8.6 804
8.62 794
8.64 775
8.66 794
8.68 813
8.7 811
8.72 819
8.74 795
8.76 796
8.78 815
8.8 812
8.82 824
8.84 803
8.86 800
8.88 781
8.9 787
8.92 758
8.94 797
8.96 791
8.98 726
9 766
9.02 749
9.04 806
9.06 805
9.08 744
9.1 809
9.12 783
9.14 792
9.16 765
9.18 756
9.2 824
9.22 798
9.24 798
9.26 765
9.28 781
9.3 790
9.32 797
9.34 796
9.36 801
9.38 792
9.4 728
9.42 804
9.44 808
9.46 775
9.48 763
9.5 745
9.52 771
9.54 753
9.56 767
9.58 754
9.6 777
9.62 773
9.64 775
9.66 830
9.68 789
9.7 764
9.72 729
9.74 761
9.76 759
9.78 786
9.8 765
9.82 765
9.84 798
9.86 755
9.88 772
9.9 738
9.92 768
9.94 770
9.96 754
9.98 767
10 814
10.02 755
10.04 813
10.06 763
10.08 763
10.1 768
10.12 744
10.14 781
10.16 754
10.18 750
10.2 827
10.22 789
10.24 754
10.26 756
10.28 786
10.3 781
10.32 779
10.34 779
10.36 798
10.38 773
10.4 732
10.42 759
10.44 793
10.46 738
10.48 751
10.5 780
10.52 768
10.54 774
10.56 804
10.58 797
10.6 757
10.62 802
10.64 751
10.66 763
10.68 782
10.7 768
10.72 752
10.74 787
10.76 812
10.78 764
10.8 723
10.82 747
10.84 744
10.86 790
10.88 737
10.9 784
10.92 733
10.94 790
10.96 752
10.98 754
11 713
11.02 785
11.04 778
11.06 787
11.08 791
11.1 762
11.12 765
11.14 830
11.16 773
11.18 757
11.2 751
11.22 810
11.24 824
11.26 774
11.28 801
11.3 765
11.32 764
11.34 716
11.36 725
11.38 805
11.4 793
11.42 788
11.44 753
11.46 758
11.48 800
11.5 779
11.52 795
11.54 733
11.56 792
11.58 809
11.6 746
11.62 728
11.64 821
11.66 782
11.68 754
11.7 783
11.72 799
11.74 793
11.76 741
11.78 770
11.8 742
11.82 778
11.84 750
11.86 779
11.88 776
11.9 774
11.92 776
11.94 762
11.96 760
11.98 779
12 820
12.02 809
12.04 802
12.06 803
12.08 701
12.1 748
12.12 779
12.14 751
12.16 822
12.18 797
12.2 771
12.22 779
12.24 820
12.26 717
12.28 792
12.3 805
12.32 803
12.34 749
12.36 776
12.38 769
12.4 829
12.42 762
12.44 783
12.46 772
12.48 801
12.5 845
12.52 738
12.54 736
12.56 827
12.58 773
12.6 734
12.62 744
12.64 794
12.66 798
12.68 772
12.7 753
12.72 799
12.74 805
12.76 801
12.78 811
12.8 803
12.82 775
12.84 776
12.86 746
12.88 806
12.9 792
12.92 804
12.94 809
12.96 817
12.98 860
13 822
13.02 801
13.04 809
13.06 815
13.08 799
13.1 847
13.12 830
13.14 810
13.16 787
13.18 803
13.2 814
13.22 811
13.24 827
13.26 855
13.28 834
13.3 820
13.32 854
13.34 795
13.36 818
13.38 842
13.4 766
13.42 796
13.44 783
13.46 773
13.48 832
13.5 804
13.52 815
13.54 766
13.56 786
13.58 814
13.6 836
13.62 765
13.64 793
13.66 849
13.68 781
13.7 874
13.72 829
13.74 810
13.76 867
13.78 848
13.8 865
13.82 864
13.84 813
13.86 836
13.88 853
13.9 831
13.92 835
13.94 840
13.96 807
13.98 825
14 818
14.02 815
14.04 802
14.06 789
14.08 834
14.1 823
14.12 863
14.14 807
14.16 816
14.18 846
14.2 853
14.22 827
14.24 871
14.26 781
14.28 799
14.3 835
14.32 850
14.34 862
14.36 860
14.38 849
14.4 907
14.42 846
14.44 831
14.46 818
14.48 862
14.5 849
14.52 916
14.54 857
14.56 860
14.58 852
14.6 827
14.62 852
14.64 855
14.66 858
14.68 835
14.7 896
14.72 855
14.74 870
14.76 826
14.78 893
14.8 843
14.82 826
14.84 859
14.86 906
14.88 886
14.9 911
14.92 946
14.94 910
14.96 934
14.98 844
15 875
15.02 856
15.04 844
15.06 904
15.08 937
15.1 933
15.12 896
15.14 859
15.16 845
15.18 922
15.2 883
15.22 885
15.24 911
15.26 908
15.28 909
15.3 913
15.32 887
15.34 932
15.36 890
15.38 952
15.4 900
15.42 899
15.44 961
15.46 964
15.48 942
15.5 921
15.52 895
15.54 959
15.56 942
15.58 884
15.6 937
15.62 1000
15.64 883
15.66 919
15.68 939
15.7 926
15.72 980
15.74 950
15.76 901
15.78 909
15.8 952
15.82 949
15.84 993
15.86 972
15.88 962
15.9 948
15.92 972
15.94 947
15.96 957
15.98 1008
16 992
16.02 983
16.04 962
16.06 940
16.08 991
16.1 953
16.12 961
16.14 946
16.16 998
16.18 1087
16.2 1026
16.22 1005
16.24 988
16.26 1045
16.28 972
16.3 941
16.32 1000
16.34 1022
16.36 1029
16.38 1007
16.4 1031
16.42 1021
16.44 1081
16.46 1026
16.48 1069
16.5 1010
16.52 1094
16.54 1066
16.56 1069
16.58 1042
16.6 1103
16.62 1061
16.64 1077
16.66 1066
16.68 1104
16.7 1040
16.72 1120
16.74 1157
16.76 1165
16.78 1158
16.8 1262
16.82 1201
16.84 1316
16.86 1376
16.88 1387
16.9 1527
16.92 1625
16.94 1737
16.96 1902
16.98 2144
17 2195
17.02 2389
17.04 2426
17.06 2267
17.08 2088
17.1 1896
17.12 1732
17.14 1588
17.16 1419
17.18 1324
17.2 1332
17.22 1256
17.24 1268
17.26 1236
17.28 1201
17.3 1175
17.32 1156
17.34 1202
17.36 1197
17.38 1167
17.4 1190
17.42 1172
17.44 1195
17.46 1163
17.48 1190
17.5 1143
17.52 1152
17.54 1205
17.56 1172
17.58 1200
17.6 1217
17.62 1134
17.64 1185
17.66 1212
17.68 1218
17.7 1166
17.72 1215
17.74 1227
17.76 1257
17.78 1204
17.8 1251
17.82 1221
17.84 1202
17.86 1261
17.88 1246
17.9 1261
17.92 1194
17.94 1246
17.96 1211
17.98 1252
18 1211
18.02 1158
18.04 1263
18.06 1204
18.08 1227
18.1 1244
18.12 1304
18.14 1197
18.16 1264
18.18 1262
18.2 1278
18.22 1231
18.24 1323
18.26 1282
18.28 1249
18.3 1255
18.32 1217
18.34 1223
18.36 1308
18.38 1254
18.4 1295
18.42 1339
18.44 1298
18.46 1321
18.48 1313
18.5 1335
18.52 1280
18.54 1304
18.56 1326
18.58 1314
18.6 1329
18.62 1372
18.64 1304
18.66 1303
18.68 1370
18.7 1332
18.72 1359
18.74 1368
18.76 1297
18.78 1379
18.8 1435
18.82 1334
18.84 1345
18.86 1355
18.88 1394
18.9 1342
18.92 1318
18.94 1349
18.96 1335
18.98 1381
19 1390
19.02 1348
19.04 1397
19.06 1401
19.08 1468
19.1 1393
19.12 1443
19.14 1381
19.16 1404
19.18 1376
19.2 1471
19.22 1388
19.24 1337
19.26 1396
19.28 1519
19.3 1456
19.32 1484
19.34 1463
19.36 1469
19.38 1457
19.4 1445
19.42 1465
19.44 1474
19.46 1480
19.48 1443
19.5 1507
19.52 1457
19.54 1372
19.56 1432
19.58 1549
19.6 1562
19.62 1569
19.64 1556
19.66 1473
19.68 1410
19.7 1439
19.72 1479
19.74 1517
19.76 1448
19.78 1493
19.8 1507
19.82 1494
19.84 1539
19.86 1550
19.88 1526
19.9 1481
19.92 1557
19.94 1534
19.96 1523
19.98 1514
20 1578