File: xrd-UiO-67/pxrddata/7-30.ASC
3 2239
3.02 2059
3.04 1858
3.06 1871
3.08 1759
3.1 1697
3.12 1635
3.14 1549
3.16 1578
3.18 1544
3.2 1544
3.22 1438
3.24 1430
3.26 1436
3.28 1442
3.3 1385
3.32 1353
3.34 1325
3.36 1309
3.38 1324
3.4 1329
3.42 1313
3.44 1336
3.46 1238
3.48 1259
3.5 1265
3.52 1205
3.54 1235
3.56 1237
3.58 1211
3.6 1252
3.62 1172
3.64 1173
3.66 1160
3.68 1122
3.7 1125
3.72 1135
3.74 1069
3.76 1105
3.78 1063
3.8 1038
3.82 1105
3.84 1096
3.86 987
3.88 1064
3.9 1075
3.92 997
3.94 946
3.96 983
3.98 981
4 981
4.02 982
4.04 973
4.06 955
4.08 989
4.1 986
4.12 925
4.14 936
4.16 959
4.18 930
4.2 915
4.22 908
4.24 931
4.26 962
4.28 929
4.3 857
4.32 895
4.34 911
4.36 834
4.38 837
4.4 833
4.42 884
4.44 847
4.46 851
4.48 892
4.5 828
4.52 845
4.54 837
4.56 878
4.58 837
4.6 890
4.62 803
4.64 863
4.66 811
4.68 826
4.7 849
4.72 803
4.74 836
4.76 812
4.78 803
4.8 884
4.82 830
4.84 807
4.86 859
4.88 824
4.9 866
4.92 874
4.94 853
4.96 850
4.98 823
5 894
5.02 896
5.04 872
5.06 908
5.08 962
5.1 963
5.12 921
5.14 934
5.16 1031
5.18 1032
5.2 1007
5.22 1063
5.24 1072
5.26 1112
5.28 1150
5.3 1169
5.32 1219
5.34 1203
5.36 1265
5.38 1300
5.4 1322
5.42 1366
5.44 1338
5.46 1370
5.48 1417
5.5 1467
5.52 1422
5.54 1414
5.56 1425
5.58 1441
5.6 1438
5.62 1458
5.64 1492
5.66 1455
5.68 1472
5.7 1452
5.72 1490
5.74 1440
5.76 1426
5.78 1337
5.8 1315
5.82 1252
5.84 1285
5.86 1178
5.88 1139
5.9 1089
5.92 1093
5.94 1038
5.96 1034
5.98 953
6 936
6.02 927
6.04 915
6.06 856
6.08 830
6.1 876
6.12 828
6.14 819
6.16 764
6.18 831
6.2 824
6.22 785
6.24 737
6.26 797
6.28 765
6.3 752
6.32 791
6.34 740
6.36 766
6.38 725
6.4 728
6.42 761
6.44 754
6.46 729
6.48 767
6.5 752
6.52 735
6.54 730
6.56 679
6.58 710
6.6 731
6.62 743
6.64 743
6.66 763
6.68 759
6.7 758
6.72 786
6.74 742
6.76 670
6.78 701
6.8 707
6.82 688
6.84 720
6.86 710
6.88 760
6.9 750
6.92 698
6.94 685
6.96 738
6.98 736
7 695
7.02 737
7.04 729
7.06 763
7.08 751
7.1 721
7.12 757
7.14 724
7.16 728
7.18 701
7.2 697
7.22 718
7.24 723
7.26 710
7.28 708
7.3 685
7.32 701
7.34 716
7.36 694
7.38 676
7.4 716
7.42 687
7.44 708
7.46 684
7.48 679
7.5 728
7.52 695
7.54 714
7.56 690
7.58 662
7.6 681
7.62 695
7.64 658
7.66 655
7.68 650
7.7 670
7.72 665
7.74 704
7.76 675
7.78 674
7.8 691
7.82 654
7.84 685
7.86 664
7.88 690
7.9 702
7.92 675
7.94 686
7.96 678
7.98 627
8 646
8.02 709
8.04 677
8.06 660
8.08 697
8.1 686
8.12 649
8.14 668
8.16 653
8.18 665
8.2 621
8.22 628
8.24 689
8.26 632
8.28 677
8.3 683
8.32 663
8.34 615
8.36 619
8.38 603
8.4 680
8.42 645
8.44 635
8.46 655
8.48 637
8.5 693
8.52 655
8.54 644
8.56 640
8.58 629
8.6 611
8.62 625
8.64 631
8.66 658
8.68 640
8.7 636
8.72 642
8.74 687
8.76 619
8.78 632
8.8 649
8.82 617
8.84 639
8.86 643
8.88 689
8.9 642
8.92 648
8.94 699
8.96 629
8.98 669
9 692
9.02 698
9.04 697
9.06 676
9.08 655
9.1 702
9.12 724
9.14 722
9.16 725
9.18 733
9.2 740
9.22 824
9.24 839
9.26 891
9.28 870
9.3 869
9.32 896
9.34 919
9.36 879
9.38 855
9.4 831
9.42 790
9.44 830
9.46 794
9.48 775
9.5 743
9.52 735
9.54 714
9.56 725
9.58 719
9.6 682
9.62 682
9.64 650
9.66 648
9.68 627
9.7 634
9.72 689
9.74 622
9.76 638
9.78 604
9.8 613
9.82 645
9.84 639
9.86 667
9.88 619
9.9 618
9.92 622
9.94 636
9.96 649
9.98 669
10 661
10.02 599
10.04 652
10.06 616
10.08 642
10.1 605
10.12 584
10.14 684
10.16 612
10.18 615
10.2 611
10.22 629
10.24 603
10.26 627
10.28 635
10.3 661
10.32 642
10.34 656
10.36 665
10.38 591
10.4 603
10.42 597
10.44 632
10.46 608
10.48 626
10.5 628
10.52 630
10.54 624
10.56 618
10.58 637
10.6 644
10.62 639
10.64 630
10.66 660
10.68 673
10.7 694
10.72 674
10.74 720
10.76 728
10.78 657
10.8 715
10.82 718
10.84 762
10.86 732
10.88 744
10.9 754
10.92 722
10.94 735
10.96 728
10.98 745
11 735
11.02 723
11.04 697
11.06 721
11.08 689
11.1 703
11.12 639
11.14 670
11.16 675
11.18 641
11.2 674
11.22 668
11.24 632
11.26 589
11.28 633
11.3 621
11.32 656
11.34 612
11.36 594
11.38 605
11.4 640
11.42 617
11.44 631
11.46 623
11.48 635
11.5 587
11.52 610
11.54 592
11.56 557
11.58 610
11.6 617
11.62 645
11.64 592
11.66 590
11.68 618
11.7 624
11.72 613
11.74 597
11.76 611
11.78 649
11.8 613
11.82 649
11.84 534
11.86 630
11.88 590
11.9 564
11.92 667
11.94 615
11.96 585
11.98 590
12 623
12.02 573
12.04 629
12.06 630
12.08 577
12.1 607
12.12 617
12.14 650
12.16 642
12.18 617
12.2 603
12.22 611
12.24 612
12.26 636
12.28 581
12.3 622
12.32 614
12.34 635
12.36 613
12.38 612
12.4 601
12.42 625
12.44 623
12.46 591
12.48 654
12.5 597
12.52 597
12.54 595
12.56 607
12.58 673
12.6 592
12.62 628
12.64 554
12.66 613
12.68 571
12.7 608
12.72 586
12.74 598
12.76 603
12.78 607
12.8 621
12.82 629
12.84 650
12.86 641
12.88 623
12.9 607
12.92 618
12.94 603
12.96 624
12.98 619
13 639
13.02 657
13.04 631
13.06 585
13.08 583
13.1 596
13.12 624
13.14 621
13.16 644
13.18 613
13.2 606
13.22 636
13.24 634
13.26 639
13.28 651
13.3 629
13.32 630
13.34 694
13.36 588
13.38 615
13.4 661
13.42 686
13.44 649
13.46 643
13.48 681
13.5 609
13.52 622
13.54 648
13.56 635
13.58 629
13.6 643
13.62 687
13.64 650
13.66 615
13.68 652
13.7 627
13.72 658
13.74 671
13.76 626
13.78 655
13.8 656
13.82 685
13.84 659
13.86 696
13.88 670
13.9 621
13.92 659
13.94 656
13.96 627
13.98 655
14 620
14.02 723
14.04 673
14.06 656
14.08 711
14.1 646
14.12 715
14.14 661
14.16 649
14.18 679
14.2 717
14.22 719
14.24 696
14.26 687
14.28 705
14.3 722
14.32 710
14.34 649
14.36 664
14.38 690
14.4 734
14.42 704
14.44 700
14.46 715
14.48 692
14.5 681
14.52 679
14.54 683
14.56 683
14.58 682
14.6 681
14.62 683
14.64 677
14.66 735
14.68 690
14.7 691
14.72 752
14.74 714
14.76 695
14.78 694
14.8 707
14.82 759
14.84 660
14.86 699
14.88 698
14.9 709
14.92 730
14.94 653
14.96 662
14.98 710
15 698
15.02 719
15.04 742
15.06 731
15.08 708
15.1 758
15.12 758
15.14 716
15.16 804
15.18 732
15.2 747
15.22 761
15.24 766
15.26 749
15.28 733
15.3 786
15.32 775
15.34 734
15.36 698
15.38 717
15.4 813
15.42 738
15.44 739
15.46 759
15.48 751
15.5 733
15.52 771
15.54 756
15.56 721
15.58 754
15.6 760
15.62 791
15.64 808
15.66 806
15.68 738
15.7 788
15.72 773
15.74 760
15.76 786
15.78 777
15.8 794
15.82 765
15.84 770
15.86 789
15.88 797
15.9 790
15.92 770
15.94 801
15.96 821
15.98 802
16 881
16.02 777
16.04 795
16.06 783
16.08 776
16.1 762
16.12 804
16.14 810
16.16 810
16.18 844
16.2 850
16.22 823
16.24 818
16.26 854
16.28 840
16.3 818
16.32 830
16.34 872
16.36 813
16.38 819
16.4 863
16.42 879
16.44 913
16.46 851
16.48 834
16.5 919
16.52 868
16.54 841
16.56 870
16.58 842
16.6 863
16.62 852
16.64 885
16.66 890
16.68 882
16.7 831
16.72 877
16.74 861
16.76 862
16.78 890
16.8 892
16.82 934
16.84 907
16.86 895
16.88 852
16.9 924
16.92 919
16.94 917
16.96 941
16.98 909
17 876
17.02 915
17.04 898
17.06 888
17.08 930
17.1 921
17.12 928
17.14 932
17.16 919
17.18 926
17.2 906
17.22 917
17.24 945
17.26 936
17.28 932
17.3 981
17.32 963
17.34 936
17.36 935
17.38 979
17.4 952
17.42 954
17.44 920
17.46 973
17.48 904
17.5 978
17.52 1009
17.54 919
17.56 953
17.58 1011
17.6 992
17.62 966
17.64 1030
17.66 1010
17.68 994
17.7 961
17.72 980
17.74 1012
17.76 979
17.78 942
17.8 1055
17.82 996
17.84 981
17.86 992
17.88 1028
17.9 1040
17.92 1058
17.94 1053
17.96 1021
17.98 1016
18 1026
18.02 1047
18.04 1073
18.06 1038
18.08 1094
18.1 1001
18.12 1003
18.14 1075
18.16 1030
18.18 1059
18.2 1068
18.22 1032
18.24 1053
18.26 1059
18.28 1041
18.3 1090
18.32 1072
18.34 1076
18.36 1092
18.38 1052
18.4 1118
18.42 1069
18.44 1062
18.46 1060
18.48 1114
18.5 1045
18.52 1134
18.54 1091
18.56 1081
18.58 1084
18.6 1136
18.62 1134
18.64 1096
18.66 1096
18.68 1092
18.7 1091
18.72 1208
18.74 1189
18.76 1181
18.78 1136
18.8 1140
18.82 1151
18.84 1146
18.86 1165
18.88 1144
18.9 1090
18.92 1203
18.94 1175
18.96 1173
18.98 1150
19 1167
19.02 1165
19.04 1133
19.06 1138
19.08 1126
19.1 1219
19.12 1245
19.14 1216
19.16 1184
19.18 1217
19.2 1209
19.22 1260
19.24 1192
19.26 1182
19.28 1192
19.3 1250
19.32 1197
19.34 1228
19.36 1220
19.38 1243
19.4 1215
19.42 1230
19.44 1276
19.46 1268
19.48 1243
19.5 1248
19.52 1315
19.54 1311
19.56 1287
19.58 1317
19.6 1295
19.62 1335
19.64 1308
19.66 1255
19.68 1278
19.7 1236
19.72 1250
19.74 1271
19.76 1231
19.78 1284
19.8 1276
19.82 1255
19.84 1242
19.86 1266
19.88 1297
19.9 1243
19.92 1287
19.94 1305
19.96 1223
19.98 1243
20 1213