File: xrd-UiO-67/pxrddata/7-31.ASC
3 2140
3.02 1931
3.04 1819
3.06 1687
3.08 1612
3.1 1630
3.12 1538
3.14 1465
3.16 1510
3.18 1420
3.2 1424
3.22 1471
3.24 1445
3.26 1379
3.28 1348
3.3 1322
3.32 1365
3.34 1335
3.36 1284
3.38 1293
3.4 1360
3.42 1277
3.44 1275
3.46 1244
3.48 1175
3.5 1128
3.52 1195
3.54 1188
3.56 1169
3.58 1095
3.6 1119
3.62 1161
3.64 1103
3.66 1064
3.68 1074
3.7 1089
3.72 1082
3.74 1042
3.76 1024
3.78 1092
3.8 1105
3.82 1023
3.84 999
3.86 1028
3.88 1001
3.9 962
3.92 1002
3.94 994
3.96 932
3.98 970
4 933
4.02 951
4.04 935
4.06 996
4.08 998
4.1 928
4.12 898
4.14 908
4.16 854
4.18 889
4.2 908
4.22 886
4.24 876
4.26 911
4.28 839
4.3 910
4.32 835
4.34 827
4.36 856
4.38 833
4.4 846
4.42 800
4.44 806
4.46 804
4.48 808
4.5 812
4.52 787
4.54 820
4.56 776
4.58 824
4.6 784
4.62 787
4.64 776
4.66 796
4.68 775
4.7 813
4.72 804
4.74 760
4.76 754
4.78 748
4.8 762
4.82 753
4.84 784
4.86 699
4.88 769
4.9 778
4.92 710
4.94 759
4.96 724
4.98 749
5 732
5.02 757
5.04 735
5.06 710
5.08 721
5.1 713
5.12 685
5.14 710
5.16 693
5.18 673
5.2 723
5.22 679
5.24 684
5.26 726
5.28 691
5.3 699
5.32 709
5.34 757
5.36 704
5.38 686
5.4 675
5.42 699
5.44 689
5.46 686
5.48 698
5.5 728
5.52 734
5.54 688
5.56 724
5.58 681
5.6 676
5.62 686
5.64 697
5.66 676
5.68 721
5.7 667
5.72 694
5.74 635
5.76 661
5.78 679
5.8 715
5.82 673
5.84 714
5.86 682
5.88 752
5.9 674
5.92 684
5.94 664
5.96 692
5.98 664
6 663
6.02 711
6.04 700
6.06 654
6.08 667
6.1 688
6.12 661
6.14 641
6.16 656
6.18 671
6.2 687
6.22 687
6.24 696
6.26 671
6.28 653
6.3 637
6.32 689
6.34 693
6.36 652
6.38 653
6.4 725
6.42 710
6.44 710
6.46 659
6.48 677
6.5 671
6.52 681
6.54 694
6.56 682
6.58 665
6.6 666
6.62 691
6.64 649
6.66 685
6.68 711
6.7 690
6.72 691
6.74 657
6.76 679
6.78 675
6.8 634
6.82 660
6.84 700
6.86 663
6.88 647
6.9 683
6.92 659
6.94 620
6.96 643
6.98 648
7 675
7.02 702
7.04 687
7.06 703
7.08 700
7.1 662
7.12 665
7.14 683
7.16 691
7.18 662
7.2 676
7.22 705
7.24 665
7.26 671
7.28 706
7.3 690
7.32 683
7.34 682
7.36 648
7.38 641
7.4 639
7.42 682
7.44 682
7.46 700
7.48 654
7.5 660
7.52 667
7.54 635
7.56 651
7.58 693
7.6 697
7.62 672
7.64 661
7.66 649
7.68 684
7.7 691
7.72 673
7.74 619
7.76 644
7.78 629
7.8 674
7.82 659
7.84 663
7.86 720
7.88 623
7.9 591
7.92 686
7.94 618
7.96 667
7.98 624
8 611
8.02 634
8.04 599
8.06 664
8.08 647
8.1 666
8.12 651
8.14 668
8.16 664
8.18 625
8.2 662
8.22 633
8.24 606
8.26 664
8.28 669
8.3 660
8.32 643
8.34 654
8.36 626
8.38 638
8.4 642
8.42 679
8.44 617
8.46 635
8.48 628
8.5 639
8.52 637
8.54 683
8.56 702
8.58 661
8.6 659
8.62 642
8.64 660
8.66 610
8.68 634
8.7 622
8.72 649
8.74 610
8.76 643
8.78 640
8.8 658
8.82 660
8.84 644
8.86 627
8.88 653
8.9 643
8.92 633
8.94 627
8.96 610
8.98 636
9 616
9.02 619
9.04 669
9.06 634
9.08 596
9.1 625
9.12 627
9.14 629
9.16 655
9.18 645
9.2 686
9.22 654
9.24 641
9.26 589
9.28 619
9.3 632
9.32 627
9.34 676
9.36 646
9.38 613
9.4 595
9.42 627
9.44 599
9.46 635
9.48 625
9.5 619
9.52 635
9.54 639
9.56 639
9.58 647
9.6 633
9.62 574
9.64 648
9.66 618
9.68 643
9.7 581
9.72 628
9.74 600
9.76 648
9.78 606
9.8 600
9.82 615
9.84 673
9.86 640
9.88 642
9.9 636
9.92 624
9.94 598
9.96 655
9.98 638
10 580
10.02 649
10.04 624
10.06 609
10.08 621
10.1 630
10.12 655
10.14 621
10.16 639
10.18 609
10.2 577
10.22 607
10.24 637
10.26 641
10.28 617
10.3 636
10.32 616
10.34 620
10.36 612
10.38 610
10.4 638
10.42 654
10.44 592
10.46 596
10.48 630
10.5 614
10.52 596
10.54 607
10.56 647
10.58 631
10.6 604
10.62 580
10.64 609
10.66 611
10.68 644
10.7 646
10.72 621
10.74 583
10.76 641
10.78 598
10.8 639
10.82 629
10.84 620
10.86 643
10.88 585
10.9 624
10.92 651
10.94 586
10.96 631
10.98 611
11 659
11.02 619
11.04 646
11.06 615
11.08 619
11.1 598
11.12 591
11.14 630
11.16 640
11.18 601
11.2 657
11.22 616
11.24 606
11.26 637
11.28 646
11.3 623
11.32 633
11.34 605
11.36 629
11.38 646
11.4 611
11.42 636
11.44 626
11.46 625
11.48 682
11.5 633
11.52 634
11.54 645
11.56 598
11.58 609
11.6 594
11.62 627
11.64 622
11.66 651
11.68 644
11.7 657
11.72 611
11.74 637
11.76 642
11.78 639
11.8 648
11.82 639
11.84 663
11.86 674
11.88 661
11.9 636
11.92 611
11.94 628
11.96 572
11.98 615
12 601
12.02 648
12.04 636
12.06 640
12.08 646
12.1 684
12.12 614
12.14 682
12.16 618
12.18 628
12.2 668
12.22 649
12.24 629
12.26 656
12.28 667
12.3 675
12.32 657
12.34 608
12.36 629
12.38 643
12.4 668
12.42 701
12.44 650
12.46 670
12.48 666
12.5 651
12.52 663
12.54 620
12.56 638
12.58 614
12.6 628
12.62 692
12.64 666
12.66 655
12.68 663
12.7 678
12.72 666
12.74 685
12.76 639
12.78 672
12.8 644
12.82 647
12.84 636
12.86 704
12.88 679
12.9 643
12.92 647
12.94 634
12.96 686
12.98 701
13 639
13.02 632
13.04 681
13.06 629
13.08 670
13.1 642
13.12 657
13.14 728
13.16 685
13.18 682
13.2 655
13.22 668
13.24 678
13.26 707
13.28 740
13.3 720
13.32 721
13.34 740
13.36 741
13.38 743
13.4 725
13.42 734
13.44 700
13.46 656
13.48 716
13.5 714
13.52 716
13.54 666
13.56 724
13.58 694
13.6 746
13.62 715
13.64 705
13.66 688
13.68 675
13.7 735
13.72 712
13.74 721
13.76 683
13.78 730
13.8 721
13.82 667
13.84 748
13.86 692
13.88 705
13.9 710
13.92 736
13.94 705
13.96 724
13.98 654
14 707
14.02 711
14.04 734
14.06 730
14.08 717
14.1 730
14.12 706
14.14 756
14.16 767
14.18 716
14.2 737
14.22 673
14.24 661
14.26 704
14.28 687
14.3 728
14.32 787
14.34 724
14.36 759
14.38 768
14.4 787
14.42 771
14.44 722
14.46 742
14.48 744
14.5 733
14.52 767
14.54 734
14.56 770
14.58 743
14.6 727
14.62 750
14.64 787
14.66 795
14.68 755
14.7 759
14.72 815
14.74 770
14.76 822
14.78 760
14.8 821
14.82 794
14.84 809
14.86 823
14.88 797
14.9 752
14.92 779
14.94 780
14.96 803
14.98 795
15 798
15.02 805
15.04 849
15.06 790
15.08 800
15.1 846
15.12 804
15.14 812
15.16 791
15.18 809
15.2 856
15.22 797
15.24 805
15.26 758
15.28 797
15.3 797
15.32 803
15.34 827
15.36 840
15.38 883
15.4 849
15.42 833
15.44 877
15.46 816
15.48 858
15.5 838
15.52 874
15.54 878
15.56 813
15.58 824
15.6 832
15.62 900
15.64 793
15.66 877
15.68 787
15.7 830
15.72 890
15.74 832
15.76 846
15.78 865
15.8 895
15.82 874
15.84 877
15.86 896
15.88 893
15.9 864
15.92 841
15.94 851
15.96 839
15.98 899
16 874
16.02 892
16.04 886
16.06 909
16.08 897
16.1 866
16.12 890
16.14 896
16.16 896
16.18 887
16.2 893
16.22 942
16.24 918
16.26 927
16.28 927
16.3 903
16.32 892
16.34 975
16.36 908
16.38 906
16.4 923
16.42 879
16.44 943
16.46 904
16.48 970
16.5 987
16.52 1007
16.54 1008
16.56 1008
16.58 989
16.6 939
16.62 1018
16.64 966
16.66 1052
16.68 1058
16.7 1017
16.72 1036
16.74 1110
16.76 1077
16.78 1161
16.8 1184
16.82 1170
16.84 1300
16.86 1406
16.88 1463
16.9 1693
16.92 1920
16.94 2095
16.96 2378
16.98 2799
17 3176
17.02 3677
17.04 3931
17.06 3943
17.08 3800
17.1 3381
17.12 2908
17.14 2370
17.16 1857
17.18 1526
17.2 1335
17.22 1234
17.24 1255
17.26 1138
17.28 1127
17.3 1117
17.32 1104
17.34 1095
17.36 1080
17.38 1117
17.4 1080
17.42 1135
17.44 1095
17.46 1074
17.48 1059
17.5 1154
17.52 1074
17.54 1105
17.56 1104
17.58 1129
17.6 1095
17.62 1142
17.64 1123
17.66 1168
17.68 1096
17.7 1167
17.72 1107
17.74 1082
17.76 1108
17.78 1137
17.8 1100
17.82 1110
17.84 1126
17.86 1097
17.88 1152
17.9 1105
17.92 1114
17.94 1194
17.96 1132
17.98 1162
18 1148
18.02 1129
18.04 1174
18.06 1142
18.08 1162
18.1 1133
18.12 1149
18.14 1183
18.16 1187
18.18 1148
18.2 1155
18.22 1103
18.24 1157
18.26 1222
18.28 1235
18.3 1200
18.32 1192
18.34 1207
18.36 1201
18.38 1248
18.4 1209
18.42 1171
18.44 1278
18.46 1224
18.48 1198
18.5 1222
18.52 1258
18.54 1183
18.56 1246
18.58 1282
18.6 1183
18.62 1186
18.64 1339
18.66 1251
18.68 1321
18.7 1283
18.72 1243
18.74 1273
18.76 1295
18.78 1205
18.8 1255
18.82 1264
18.84 1276
18.86 1283
18.88 1319
18.9 1282
18.92 1322
18.94 1326
18.96 1346
18.98 1317
19 1307
19.02 1340
19.04 1346
19.06 1407
19.08 1296
19.1 1428
19.12 1272
19.14 1297
19.16 1329
19.18 1341
19.2 1390
19.22 1344
19.24 1358
19.26 1360
19.28 1379
19.3 1371
19.32 1386
19.34 1395
19.36 1416
19.38 1366
19.4 1378
19.42 1358
19.44 1365
19.46 1404
19.48 1402
19.5 1401
19.52 1411
19.54 1382
19.56 1437
19.58 1434
19.6 1453
19.62 1418
19.64 1476
19.66 1419
19.68 1441
19.7 1401
19.72 1503
19.74 1485
19.76 1415
19.78 1494
19.8 1545
19.82 1503
19.84 1519
19.86 1506
19.88 1470
19.9 1402
19.92 1467
19.94 1487
19.96 1514
19.98 1493
20 1485