File: xrd-UiO-67/pxrddata/7-32.ASC
3 1927
3.02 1897
3.04 1689
3.06 1660
3.08 1527
3.1 1484
3.12 1440
3.14 1413
3.16 1344
3.18 1347
3.2 1379
3.22 1326
3.24 1298
3.26 1275
3.28 1248
3.3 1318
3.32 1262
3.34 1218
3.36 1207
3.38 1219
3.4 1178
3.42 1174
3.44 1140
3.46 1228
3.48 1189
3.5 1131
3.52 1147
3.54 1138
3.56 1067
3.58 1074
3.6 1052
3.62 1064
3.64 1031
3.66 1032
3.68 1024
3.7 1026
3.72 1015
3.74 1047
3.76 1057
3.78 989
3.8 988
3.82 955
3.84 938
3.86 921
3.88 917
3.9 951
3.92 890
3.94 895
3.96 925
3.98 870
4 904
4.02 881
4.04 893
4.06 852
4.08 872
4.1 902
4.12 869
4.14 878
4.16 833
4.18 824
4.2 776
4.22 855
4.24 814
4.26 856
4.28 832
4.3 838
4.32 809
4.34 789
4.36 790
4.38 753
4.4 783
4.42 786
4.44 793
4.46 783
4.48 796
4.5 798
4.52 803
4.54 786
4.56 726
4.58 758
4.6 784
4.62 764
4.64 783
4.66 716
4.68 712
4.7 728
4.72 728
4.74 769
4.76 723
4.78 715
4.8 718
4.82 714
4.84 688
4.86 727
4.88 719
4.9 682
4.92 693
4.94 664
4.96 681
4.98 679
5 701
5.02 688
5.04 715
5.06 683
5.08 694
5.1 671
5.12 696
5.14 712
5.16 703
5.18 691
5.2 706
5.22 709
5.24 686
5.26 706
5.28 662
5.3 685
5.32 697
5.34 689
5.36 669
5.38 692
5.4 702
5.42 701
5.44 724
5.46 694
5.48 705
5.5 706
5.52 728
5.54 691
5.56 676
5.58 672
5.6 653
5.62 658
5.64 683
5.66 697
5.68 702
5.7 754
5.72 707
5.74 687
5.76 638
5.78 657
5.8 690
5.82 672
5.84 642
5.86 641
5.88 707
5.9 680
5.92 705
5.94 674
5.96 697
5.98 691
6 639
6.02 694
6.04 684
6.06 678
6.08 660
6.1 648
6.12 650
6.14 704
6.16 682
6.18 686
6.2 686
6.22 638
6.24 671
6.26 678
6.28 693
6.3 674
6.32 663
6.34 641
6.36 652
6.38 653
6.4 638
6.42 632
6.44 656
6.46 655
6.48 633
6.5 673
6.52 676
6.54 639
6.56 681
6.58 693
6.6 625
6.62 693
6.64 653
6.66 641
6.68 648
6.7 620
6.72 643
6.74 673
6.76 694
6.78 718
6.8 668
6.82 633
6.84 734
6.86 699
6.88 718
6.9 645
6.92 708
6.94 708
6.96 692
6.98 682
7 715
7.02 685
7.04 653
7.06 702
7.08 738
7.1 677
7.12 732
7.14 715
7.16 690
7.18 653
7.2 665
7.22 668
7.24 657
7.26 629
7.28 637
7.3 672
7.32 695
7.34 660
7.36 691
7.38 694
7.4 698
7.42 695
7.44 673
7.46 700
7.48 707
7.5 690
7.52 704
7.54 659
7.56 655
7.58 619
7.6 669
7.62 667
7.64 678
7.66 705
7.68 700
7.7 659
7.72 710
7.74 673
7.76 695
7.78 680
7.8 703
7.82 697
7.84 710
7.86 651
7.88 655
7.9 690
7.92 644
7.94 675
7.96 664
7.98 701
8 762
8.02 695
8.04 691
8.06 636
8.08 662
8.1 684
8.12 681
8.14 675
8.16 713
8.18 659
8.2 693
8.22 684
8.24 647
8.26 675
8.28 704
8.3 672
8.32 666
8.34 645
8.36 659
8.38 687
8.4 695
8.42 677
8.44 632
8.46 686
8.48 680
8.5 703
8.52 706
8.54 676
8.56 654
8.58 639
8.6 649
8.62 700
8.64 661
8.66 697
8.68 670
8.7 658
8.72 658
8.74 656
8.76 690
8.78 709
8.8 673
8.82 677
8.84 653
8.86 645
8.88 660
8.9 688
8.92 666
8.94 644
8.96 622
8.98 655
9 676
9.02 698
9.04 705
9.06 674
9.08 673
9.1 647
9.12 639
9.14 663
9.16 699
9.18 634
9.2 662
9.22 642
9.24 666
9.26 722
9.28 666
9.3 666
9.32 694
9.34 678
9.36 696
9.38 665
9.4 658
9.42 674
9.44 709
9.46 657
9.48 681
9.5 645
9.52 677
9.54 735
9.56 692
9.58 702
9.6 677
9.62 648
9.64 664
9.66 688
9.68 660
9.7 725
9.72 679
9.74 676
9.76 706
9.78 713
9.8 686
9.82 693
9.84 623
9.86 692
9.88 673
9.9 677
9.92 636
9.94 687
9.96 712
9.98 680
10 701
10.02 688
10.04 719
10.06 686
10.08 650
10.1 668
10.12 714
10.14 682
10.16 681
10.18 679
10.2 654
10.22 661
10.24 716
10.26 693
10.28 639
10.3 650
10.32 687
10.34 681
10.36 643
10.38 685
10.4 622
10.42 669
10.44 634
10.46 675
10.48 647
10.5 682
10.52 672
10.54 660
10.56 688
10.58 670
10.6 680
10.62 682
10.64 681
10.66 685
10.68 665
10.7 653
10.72 673
10.74 707
10.76 668
10.78 673
10.8 692
10.82 648
10.84 696
10.86 696
10.88 643
10.9 647
10.92 683
10.94 691
10.96 688
10.98 684
11 703
11.02 685
11.04 696
11.06 683
11.08 658
11.1 683
11.12 689
11.14 735
11.16 712
11.18 702
11.2 669
11.22 666
11.24 718
11.26 662
11.28 682
11.3 666
11.32 711
11.34 634
11.36 685
11.38 714
11.4 702
11.42 687
11.44 655
11.46 690
11.48 649
11.5 683
11.52 699
11.54 680
11.56 717
11.58 675
11.6 675
11.62 672
11.64 702
11.66 679
11.68 650
11.7 665
11.72 692
11.74 659
11.76 650
11.78 674
11.8 697
11.82 659
11.84 659
11.86 707
11.88 700
11.9 668
11.92 684
11.94 701
11.96 709
11.98 699
12 739
12.02 682
12.04 706
12.06 708
12.08 712
12.1 681
12.12 698
12.14 699
12.16 671
12.18 720
12.2 686
12.22 679
12.24 694
12.26 680
12.28 716
12.3 732
12.32 665
12.34 701
12.36 680
12.38 671
12.4 743
12.42 684
12.44 712
12.46 746
12.48 695
12.5 720
12.52 688
12.54 689
12.56 730
12.58 732
12.6 713
12.62 712
12.64 671
12.66 729
12.68 703
12.7 719
12.72 753
12.74 722
12.76 642
12.78 703
12.8 721
12.82 756
12.84 719
12.86 747
12.88 755
12.9 750
12.92 727
12.94 732
12.96 750
12.98 697
13 725
13.02 695
13.04 770
13.06 734
13.08 710
13.1 738
13.12 751
13.14 734
13.16 721
13.18 730
13.2 772
13.22 814
13.24 779
13.26 751
13.28 774
13.3 753
13.32 769
13.34 814
13.36 750
13.38 784
13.4 756
13.42 740
13.44 785
13.46 740
13.48 797
13.5 744
13.52 720
13.54 723
13.56 742
13.58 787
13.6 741
13.62 750
13.64 754
13.66 758
13.68 768
13.7 752
13.72 780
13.74 728
13.76 767
13.78 774
13.8 746
13.82 773
13.84 813
13.86 776
13.88 761
13.9 716
13.92 764
13.94 773
13.96 743
13.98 777
14 818
14.02 752
14.04 743
14.06 757
14.08 681
14.1 789
14.12 726
14.14 769
14.16 811
14.18 785
14.2 784
14.22 760
14.24 755
14.26 787
14.28 778
14.3 799
14.32 800
14.34 779
14.36 816
14.38 807
14.4 789
14.42 808
14.44 806
14.46 833
14.48 864
14.5 808
14.52 786
14.54 809
14.56 796
14.58 775
14.6 821
14.62 798
14.64 795
14.66 792
14.68 789
14.7 791
14.72 812
14.74 826
14.76 824
14.78 811
14.8 798
14.82 813
14.84 787
14.86 828
14.88 861
14.9 854
14.92 822
14.94 794
14.96 814
14.98 827
15 821
15.02 844
15.04 856
15.06 799
15.08 815
15.1 836
15.12 845
15.14 889
15.16 882
15.18 821
15.2 887
15.22 853
15.24 859
15.26 875
15.28 887
15.3 879
15.32 858
15.34 841
15.36 897
15.38 920
15.4 889
15.42 973
15.44 915
15.46 874
15.48 863
15.5 937
15.52 867
15.54 819
15.56 844
15.58 886
15.6 851
15.62 849
15.64 913
15.66 859
15.68 903
15.7 929
15.72 934
15.74 896
15.76 872
15.78 904
15.8 916
15.82 935
15.84 925
15.86 908
15.88 870
15.9 908
15.92 919
15.94 892
15.96 914
15.98 912
16 898
16.02 911
16.04 897
16.06 912
16.08 920
16.1 913
16.12 934
16.14 928
16.16 904
16.18 924
16.2 946
16.22 971
16.24 921
16.26 978
16.28 970
16.3 979
16.32 975
16.34 958
16.36 922
16.38 944
16.4 992
16.42 981
16.44 957
16.46 972
16.48 1042
16.5 955
16.52 1017
16.54 1081
16.56 1018
16.58 1039
16.6 1127
16.62 979
16.64 1038
16.66 1077
16.68 1092
16.7 1130
16.72 1152
16.74 1111
16.76 1231
16.78 1128
16.8 1255
16.82 1326
16.84 1368
16.86 1524
16.88 1590
16.9 1762
16.92 1990
16.94 2184
16.96 2520
16.98 3024
17 3464
17.02 3845
17.04 4357
17.06 4600
17.08 4534
17.1 4191
17.12 3471
17.14 2652
17.16 2121
17.18 1628
17.2 1415
17.22 1276
17.24 1247
17.26 1188
17.28 1204
17.3 1272
17.32 1218
17.34 1225
17.36 1289
17.38 1276
17.4 1285
17.42 1209
17.44 1191
17.46 1231
17.48 1197
17.5 1174
17.52 1145
17.54 1183
17.56 1158
17.58 1162
17.6 1132
17.62 1126
17.64 1168
17.66 1120
17.68 1175
17.7 1130
17.72 1170
17.74 1173
17.76 1158
17.78 1183
17.8 1161
17.82 1132
17.84 1185
17.86 1252
17.88 1164
17.9 1127
17.92 1141
17.94 1145
17.96 1192
17.98 1231
18 1165
18.02 1203
18.04 1180
18.06 1249
18.08 1247
18.1 1240
18.12 1208
18.14 1160
18.16 1245
18.18 1252
18.2 1202
18.22 1205
18.24 1232
18.26 1226
18.28 1286
18.3 1244
18.32 1215
18.34 1218
18.36 1218
18.38 1196
18.4 1235
18.42 1274
18.44 1239
18.46 1228
18.48 1313
18.5 1246
18.52 1259
18.54 1319
18.56 1273
18.58 1287
18.6 1279
18.62 1326
18.64 1278
18.66 1324
18.68 1265
18.7 1329
18.72 1274
18.74 1266
18.76 1316
18.78 1289
18.8 1307
18.82 1307
18.84 1307
18.86 1297
18.88 1352
18.9 1324
18.92 1405
18.94 1315
18.96 1310
18.98 1358
19 1354
19.02 1343
19.04 1320
19.06 1385
19.08 1385
19.1 1425
19.12 1365
19.14 1354
19.16 1351
19.18 1321
19.2 1440
19.22 1392
19.24 1410
19.26 1405
19.28 1407
19.3 1450
19.32 1392
19.34 1403
19.36 1416
19.38 1410
19.4 1416
19.42 1399
19.44 1393
19.46 1425
19.48 1409
19.5 1391
19.52 1398
19.54 1385
19.56 1465
19.58 1437
19.6 1495
19.62 1484
19.64 1498
19.66 1484
19.68 1551
19.7 1494
19.72 1494
19.74 1489
19.76 1488
19.78 1482
19.8 1457
19.82 1484
19.84 1512
19.86 1543
19.88 1529
19.9 1505
19.92 1504
19.94 1522
19.96 1522
19.98 1535
20 1528