File: xrd-UiO-67/pxrddata/7-33.ASC
3 2073
3.02 1952
3.04 1798
3.06 1717
3.08 1568
3.1 1542
3.12 1523
3.14 1422
3.16 1415
3.18 1332
3.2 1353
3.22 1366
3.24 1365
3.26 1304
3.28 1243
3.3 1379
3.32 1318
3.34 1367
3.36 1257
3.38 1323
3.4 1231
3.42 1303
3.44 1208
3.46 1173
3.48 1178
3.5 1163
3.52 1202
3.54 1175
3.56 1165
3.58 1203
3.6 1205
3.62 1153
3.64 1165
3.66 1108
3.68 1159
3.7 1177
3.72 1153
3.74 1174
3.76 1189
3.78 1123
3.8 1122
3.82 1114
3.84 1176
3.86 1160
3.88 1166
3.9 1108
3.92 1046
3.94 1149
3.96 1118
3.98 1108
4 1051
4.02 1087
4.04 1104
4.06 1132
4.08 1096
4.1 1145
4.12 1126
4.14 1128
4.16 1050
4.18 1158
4.2 1035
4.22 1095
4.24 1098
4.26 1084
4.28 1130
4.3 1120
4.32 1098
4.34 1095
4.36 1099
4.38 1132
4.4 1150
4.42 1164
4.44 1151
4.46 1157
4.48 1158
4.5 1108
4.52 1119
4.54 1151
4.56 1156
4.58 1122
4.6 1167
4.62 1124
4.64 1139
4.66 1196
4.68 1140
4.7 1218
4.72 1163
4.74 1202
4.76 1183
4.78 1188
4.8 1193
4.82 1205
4.84 1181
4.86 1306
4.88 1346
4.9 1269
4.92 1254
4.94 1300
4.96 1245
4.98 1280
5 1297
5.02 1361
5.04 1304
5.06 1267
5.08 1295
5.1 1318
5.12 1299
5.14 1331
5.16 1358
5.18 1313
5.2 1326
5.22 1339
5.24 1305
5.26 1458
5.28 1364
5.3 1416
5.32 1402
5.34 1358
5.36 1357
5.38 1370
5.4 1375
5.42 1424
5.44 1414
5.46 1440
5.48 1430
5.5 1419
5.52 1447
5.54 1410
5.56 1487
5.58 1406
5.6 1373
5.62 1484
5.64 1429
5.66 1424
5.68 1452
5.7 1463
5.72 1346
5.74 1529
5.76 1495
5.78 1450
5.8 1485
5.82 1376
5.84 1400
5.86 1530
5.88 1451
5.9 1405
5.92 1385
5.94 1488
5.96 1500
5.98 1457
6 1426
6.02 1462
6.04 1466
6.06 1373
6.08 1404
6.1 1336
6.12 1417
6.14 1366
6.16 1411
6.18 1346
6.2 1387
6.22 1337
6.24 1328
6.26 1330
6.28 1343
6.3 1350
6.32 1353
6.34 1317
6.36 1364
6.38 1324
6.4 1322
6.42 1320
6.44 1269
6.46 1250
6.48 1176
6.5 1212
6.52 1281
6.54 1251
6.56 1295
6.58 1207
6.6 1225
6.62 1134
6.64 1190
6.66 1215
6.68 1173
6.7 1130
6.72 1208
6.74 1179
6.76 1128
6.78 1137
6.8 1169
6.82 1127
6.84 1134
6.86 1140
6.88 1110
6.9 1056
6.92 1084
6.94 1120
6.96 1017
6.98 1011
7 1037
7.02 1022
7.04 1051
7.06 1026
7.08 995
7.1 1038
7.12 1028
7.14 983
7.16 1020
7.18 1004
7.2 967
7.22 980
7.24 972
7.26 909
7.28 918
7.3 912
7.32 964
7.34 974
7.36 971
7.38 951
7.4 921
7.42 919
7.44 918
7.46 937
7.48 901
7.5 955
7.52 863
7.54 877
7.56 896
7.58 844
7.6 870
7.62 901
7.64 907
7.66 846
7.68 805
7.7 921
7.72 893
7.74 888
7.76 851
7.78 869
7.8 830
7.82 843
7.84 888
7.86 806
7.88 822
7.9 820
7.92 814
7.94 812
7.96 806
7.98 884
8 841
8.02 804
8.04 820
8.06 812
8.08 821
8.1 806
8.12 819
8.14 788
8.16 875
8.18 840
8.2 802
8.22 834
8.24 816
8.26 843
8.28 827
8.3 806
8.32 766
8.34 801
8.36 772
8.38 827
8.4 804
8.42 803
8.44 731
8.46 782
8.48 762
8.5 720
8.52 784
8.54 816
8.56 765
8.58 832
8.6 800
8.62 800
8.64 779
8.66 813
8.68 802
8.7 764
8.72 786
8.74 793
8.76 801
8.78 762
8.8 759
8.82 758
8.84 777
8.86 778
8.88 808
8.9 784
8.92 799
8.94 795
8.96 812
8.98 775
9 812
9.02 748
9.04 807
9.06 749
9.08 779
9.1 747
9.12 781
9.14 768
9.16 787
9.18 757
9.2 768
9.22 788
9.24 740
9.26 760
9.28 792
9.3 750
9.32 785
9.34 772
9.36 810
9.38 785
9.4 736
9.42 761
9.44 786
9.46 774
9.48 768
9.5 781
9.52 807
9.54 768
9.56 804
9.58 821
9.6 802
9.62 737
9.64 795
9.66 797
9.68 843
9.7 770
9.72 833
9.74 788
9.76 751
9.78 795
9.8 856
9.82 744
9.84 807
9.86 808
9.88 805
9.9 784
9.92 830
9.94 781
9.96 792
9.98 824
10 808
10.02 823
10.04 873
10.06 819
10.08 889
10.1 826
10.12 824
10.14 830
10.16 843
10.18 860
10.2 847
10.22 848
10.24 810
10.26 836
10.28 772
10.3 850
10.32 801
10.34 816
10.36 794
10.38 808
10.4 861
10.42 840
10.44 806
10.46 847
10.48 845
10.5 850
10.52 845
10.54 799
10.56 809
10.58 805
10.6 832
10.62 797
10.64 778
10.66 804
10.68 840
10.7 815
10.72 874
10.74 869
10.76 845
10.78 821
10.8 864
10.82 807
10.84 845
10.86 849
10.88 825
10.9 803
10.92 819
10.94 901
10.96 857
10.98 823
11 884
11.02 847
11.04 836
11.06 851
11.08 851
11.1 893
11.12 836
11.14 818
11.16 840
11.18 756
11.2 851
11.22 867
11.24 867
11.26 801
11.28 835
11.3 838
11.32 883
11.34 870
11.36 870
11.38 853
11.4 854
11.42 847
11.44 837
11.46 860
11.48 918
11.5 915
11.52 900
11.54 867
11.56 936
11.58 839
11.6 865
11.62 917
11.64 839
11.66 916
11.68 886
11.7 863
11.72 879
11.74 851
11.76 899
11.78 832
11.8 902
11.82 838
11.84 848
11.86 827
11.88 922
11.9 921
11.92 885
11.94 896
11.96 847
11.98 880
12 856
12.02 886
12.04 915
12.06 851
12.08 889
12.1 874
12.12 889
12.14 880
12.16 898
12.18 867
12.2 928
12.22 863
12.24 868
12.26 906
12.28 855
12.3 889
12.32 914
12.34 906
12.36 888
12.38 892
12.4 916
12.42 851
12.44 861
12.46 861
12.48 876
12.5 849
12.52 914
12.54 941
12.56 933
12.58 902
12.6 929
12.62 844
12.64 908
12.66 860
12.68 887
12.7 853
12.72 891
12.74 868
12.76 924
12.78 931
12.8 928
12.82 861
12.84 847
12.86 879
12.88 873
12.9 881
12.92 870
12.94 914
12.96 842
12.98 902
13 947
13.02 919
13.04 871
13.06 909
13.08 872
13.1 910
13.12 875
13.14 876
13.16 859
13.18 883
13.2 899
13.22 903
13.24 954
13.26 864
13.28 890
13.3 924
13.32 898
13.34 918
13.36 882
13.38 908
13.4 856
13.42 895
13.44 899
13.46 856
13.48 911
13.5 893
13.52 887
13.54 946
13.56 927
13.58 932
13.6 941
13.62 833
13.64 874
13.66 856
13.68 895
13.7 953
13.72 962
13.74 932
13.76 933
13.78 923
13.8 905
13.82 907
13.84 944
13.86 878
13.88 954
13.9 950
13.92 997
13.94 913
13.96 866
13.98 884
14 953
14.02 944
14.04 973
14.06 902
14.08 928
14.1 925
14.12 930
14.14 949
14.16 983
14.18 935
14.2 951
14.22 948
14.24 971
14.26 1055
14.28 989
14.3 953
14.32 973
14.34 987
14.36 962
14.38 926
14.4 943
14.42 959
14.44 978
14.46 955
14.48 943
14.5 976
14.52 1018
14.54 964
14.56 995
14.58 934
14.6 989
14.62 978
14.64 1008
14.66 988
14.68 957
14.7 981
14.72 973
14.74 1048
14.76 984
14.78 1000
14.8 1024
14.82 1038
14.84 1029
14.86 1071
14.88 1032
14.9 1007
14.92 1044
14.94 1046
14.96 1050
14.98 1060
15 1036
15.02 1089
15.04 1005
15.06 1110
15.08 1045
15.1 1039
15.12 1097
15.14 1086
15.16 1111
15.18 1061
15.2 1094
15.22 1047
15.24 1030
15.26 1060
15.28 1143
15.3 1068
15.32 1103
15.34 1151
15.36 1094
15.38 1047
15.4 1047
15.42 1072
15.44 1108
15.46 1090
15.48 1153
15.5 1142
15.52 1139
15.54 1078
15.56 1081
15.58 1056
15.6 1122
15.62 1152
15.64 1176
15.66 1117
15.68 1175
15.7 1164
15.72 1167
15.74 1103
15.76 1156
15.78 1129
15.8 1168
15.82 1161
15.84 1175
15.86 1147
15.88 1137
15.9 1144
15.92 1166
15.94 1117
15.96 1164
15.98 1176
16 1227
16.02 1225
16.04 1201
16.06 1211
16.08 1213
16.1 1179
16.12 1184
16.14 1220
16.16 1267
16.18 1288
16.2 1257
16.22 1216
16.24 1292
16.26 1232
16.28 1218
16.3 1283
16.32 1235
16.34 1201
16.36 1225
16.38 1274
16.4 1235
16.42 1247
16.44 1310
16.46 1203
16.48 1238
16.5 1308
16.52 1298
16.54 1279
16.56 1196
16.58 1245
16.6 1265
16.62 1302
16.64 1336
16.66 1320
16.68 1301
16.7 1277
16.72 1286
16.74 1336
16.76 1280
16.78 1342
16.8 1341
16.82 1324
16.84 1345
16.86 1345
16.88 1344
16.9 1317
16.92 1317
16.94 1353
16.96 1406
16.98 1425
17 1384
17.02 1419
17.04 1386
17.06 1364
17.08 1356
17.1 1402
17.12 1382
17.14 1422
17.16 1452
17.18 1402
17.2 1429
17.22 1416
17.24 1452
17.26 1412
17.28 1378
17.3 1484
17.32 1426
17.34 1384
17.36 1528
17.38 1439
17.4 1502
17.42 1471
17.44 1415
17.46 1451
17.48 1472
17.5 1424
17.52 1498
17.54 1477
17.56 1530
17.58 1522
17.6 1489
17.62 1486
17.64 1509
17.66 1545
17.68 1549
17.7 1558
17.72 1583
17.74 1530
17.76 1509
17.78 1510
17.8 1565
17.82 1555
17.84 1536
17.86 1510
17.88 1482
17.9 1512
17.92 1568
17.94 1546
17.96 1520
17.98 1592
18 1536
18.02 1531
18.04 1554
18.06 1634
18.08 1661
18.1 1565
18.12 1613
18.14 1561
18.16 1620
18.18 1626
18.2 1561
18.22 1642
18.24 1591
18.26 1593
18.28 1677
18.3 1686
18.32 1647
18.34 1589
18.36 1609
18.38 1673
18.4 1656
18.42 1633
18.44 1636
18.46 1701
18.48 1550
18.5 1640
18.52 1636
18.54 1635
18.56 1739
18.58 1746
18.6 1675
18.62 1694
18.64 1731
18.66 1765
18.68 1658
18.7 1717
18.72 1716
18.74 1694
18.76 1667
18.78 1716
18.8 1644
18.82 1710
18.84 1720
18.86 1702
18.88 1769
18.9 1789
18.92 1802
18.94 1704
18.96 1671
18.98 1737
19 1698
19.02 1761
19.04 1725
19.06 1718
19.08 1750
19.1 1662
19.12 1726
19.14 1760
19.16 1731
19.18 1708
19.2 1662
19.22 1745
19.24 1725
19.26 1739
19.28 1737
19.3 1733
19.32 1673
19.34 1813
19.36 1785
19.38 1761
19.4 1778
19.42 1747
19.44 1668
19.46 1751
19.48 1726
19.5 1730
19.52 1701
19.54 1775
19.56 1726
19.58 1767
19.6 1680
19.62 1722
19.64 1734
19.66 1757
19.68 1732
19.7 1757
19.72 1795
19.74 1772
19.76 1726
19.78 1738
19.8 1767
19.82 1818
19.84 1732
19.86 1754
19.88 1710
19.9 1806
19.92 1818
19.94 1777
19.96 1786
19.98 1742
20 1750