File: xrd-UiO-67/pxrddata/7-34.ASC
3 1768
3.02 1654
3.04 1508
3.06 1358
3.08 1359
3.1 1265
3.12 1239
3.14 1185
3.16 1269
3.18 1217
3.2 1107
3.22 1147
3.24 1050
3.26 1104
3.28 1080
3.3 1102
3.32 1102
3.34 1034
3.36 1053
3.38 1020
3.4 1017
3.42 1009
3.44 1001
3.46 1009
3.48 970
3.5 998
3.52 996
3.54 954
3.56 973
3.58 935
3.6 972
3.62 917
3.64 961
3.66 939
3.68 911
3.7 890
3.72 892
3.74 927
3.76 864
3.78 879
3.8 856
3.82 847
3.84 824
3.86 854
3.88 861
3.9 862
3.92 793
3.94 814
3.96 862
3.98 824
4 812
4.02 830
4.04 823
4.06 762
4.08 763
4.1 787
4.12 772
4.14 789
4.16 787
4.18 744
4.2 748
4.22 790
4.24 759
4.26 748
4.28 764
4.3 733
4.32 784
4.34 716
4.36 668
4.38 684
4.4 755
4.42 704
4.44 760
4.46 743
4.48 727
4.5 681
4.52 715
4.54 699
4.56 682
4.58 668
4.6 717
4.62 660
4.64 675
4.66 645
4.68 652
4.7 663
4.72 666
4.74 678
4.76 658
4.78 690
4.8 667
4.82 667
4.84 666
4.86 716
4.88 698
4.9 710
4.92 665
4.94 697
4.96 641
4.98 664
5 690
5.02 692
5.04 673
5.06 668
5.08 718
5.1 712
5.12 673
5.14 741
5.16 718
5.18 756
5.2 724
5.22 729
5.24 771
5.26 815
5.28 748
5.3 745
5.32 765
5.34 797
5.36 803
5.38 846
5.4 881
5.42 882
5.44 904
5.46 905
5.48 897
5.5 940
5.52 944
5.54 989
5.56 1006
5.58 1006
5.6 1105
5.62 1117
5.64 1084
5.66 1035
5.68 1066
5.7 1092
5.72 1130
5.74 1125
5.76 1123
5.78 1149
5.8 1201
5.82 1203
5.84 1164
5.86 1168
5.88 1130
5.9 1147
5.92 1175
5.94 1156
5.96 1129
5.98 1179
6 1115
6.02 1131
6.04 1014
6.06 1065
6.08 1062
6.1 1007
6.12 934
6.14 931
6.16 947
6.18 917
6.2 882
6.22 854
6.24 896
6.26 868
6.28 856
6.3 818
6.32 808
6.34 783
6.36 811
6.38 835
6.4 800
6.42 781
6.44 779
6.46 736
6.48 730
6.5 734
6.52 700
6.54 750
6.56 716
6.58 730
6.6 727
6.62 706
6.64 747
6.66 724
6.68 800
6.7 732
6.72 735
6.74 727
6.76 729
6.78 682
6.8 752
6.82 685
6.84 738
6.86 696
6.88 709
6.9 702
6.92 717
6.94 694
6.96 701
6.98 736
7 714
7.02 723
7.04 715
7.06 767
7.08 701
7.1 734
7.12 710
7.14 701
7.16 687
7.18 731
7.2 756
7.22 689
7.24 735
7.26 704
7.28 699
7.3 766
7.32 710
7.34 762
7.36 731
7.38 701
7.4 728
7.42 762
7.44 723
7.46 697
7.48 762
7.5 759
7.52 711
7.54 704
7.56 685
7.58 749
7.6 659
7.62 676
7.64 710
7.66 682
7.68 718
7.7 668
7.72 706
7.74 693
7.76 662
7.78 673
7.8 657
7.82 628
7.84 615
7.86 635
7.88 668
7.9 678
7.92 647
7.94 649
7.96 679
7.98 632
8 632
8.02 624
8.04 637
8.06 616
8.08 604
8.1 600
8.12 575
8.14 607
8.16 600
8.18 591
8.2 615
8.22 569
8.24 578
8.26 568
8.28 571
8.3 589
8.32 638
8.34 576
8.36 613
8.38 585
8.4 541
8.42 579
8.44 560
8.46 565
8.48 576
8.5 574
8.52 540
8.54 563
8.56 585
8.58 577
8.6 548
8.62 565
8.64 579
8.66 576
8.68 575
8.7 535
8.72 527
8.74 568
8.76 534
8.78 545
8.8 535
8.82 519
8.84 494
8.86 537
8.88 541
8.9 529
8.92 543
8.94 538
8.96 537
8.98 520
9 514
9.02 499
9.04 532
9.06 509
9.08 523
9.1 573
9.12 522
9.14 544
9.16 532
9.18 559
9.2 553
9.22 533
9.24 552
9.26 584
9.28 555
9.3 546
9.32 548
9.34 592
9.36 558
9.38 590
9.4 565
9.42 524
9.44 595
9.46 604
9.48 579
9.5 585
9.52 578
9.54 589
9.56 605
9.58 617
9.6 641
9.62 607
9.64 647
9.66 602
9.68 577
9.7 592
9.72 615
9.74 537
9.76 585
9.78 542
9.8 559
9.82 538
9.84 496
9.86 550
9.88 548
9.9 457
9.92 545
9.94 521
9.96 508
9.98 479
10 514
10.02 487
10.04 503
10.06 481
10.08 478
10.1 526
10.12 517
10.14 481
10.16 496
10.18 494
10.2 484
10.22 502
10.24 482
10.26 527
10.28 489
10.3 517
10.32 482
10.34 486
10.36 503
10.38 541
10.4 478
10.42 493
10.44 503
10.46 518
10.48 522
10.5 480
10.52 524
10.54 532
10.56 522
10.58 479
10.6 453
10.62 481
10.64 481
10.66 507
10.68 446
10.7 524
10.72 508
10.74 483
10.76 509
10.78 506
10.8 510
10.82 505
10.84 549
10.86 525
10.88 524
10.9 529
10.92 541
10.94 509
10.96 544
10.98 495
11 525
11.02 531
11.04 502
11.06 543
11.08 508
11.1 551
11.12 550
11.14 550
11.16 529
11.18 550
11.2 524
11.22 568
11.24 514
11.26 523
11.28 521
11.3 531
11.32 530
11.34 469
11.36 519
11.38 486
11.4 529
11.42 503
11.44 512
11.46 555
11.48 529
11.5 498
11.52 496
11.54 511
11.56 526
11.58 481
11.6 479
11.62 492
11.64 518
11.66 471
11.68 503
11.7 494
11.72 461
11.74 514
11.76 501
11.78 499
11.8 509
11.82 509
11.84 521
11.86 521
11.88 478
11.9 512
11.92 489
11.94 485
11.96 470
11.98 502
12 482
12.02 540
12.04 514
12.06 491
12.08 482
12.1 478
12.12 490
12.14 451
12.16 496
12.18 466
12.2 483
12.22 507
12.24 465
12.26 527
12.28 493
12.3 492
12.32 474
12.34 492
12.36 486
12.38 505
12.4 443
12.42 501
12.44 470
12.46 501
12.48 494
12.5 433
12.52 491
12.54 457
12.56 494
12.58 489
12.6 466
12.62 457
12.64 456
12.66 451
12.68 490
12.7 464
12.72 489
12.74 435
12.76 458
12.78 448
12.8 427
12.82 409
12.84 477
12.86 469
12.88 463
12.9 498
12.92 434
12.94 440
12.96 461
12.98 475
13 484
13.02 506
13.04 420
13.06 454
13.08 479
13.1 451
13.12 475
13.14 450
13.16 488
13.18 470
13.2 467
13.22 467
13.24 482
13.26 460
13.28 469
13.3 468
13.32 446
13.34 474
13.36 421
13.38 450
13.4 439
13.42 455
13.44 464
13.46 463
13.48 480
13.5 441
13.52 498
13.54 454
13.56 475
13.58 456
13.6 489
13.62 463
13.64 485
13.66 463
13.68 465
13.7 502
13.72 468
13.74 497
13.76 462
13.78 467
13.8 477
13.82 464
13.84 441
13.86 475
13.88 494
13.9 491
13.92 501
13.94 483
13.96 477
13.98 496
14 483
14.02 494
14.04 517
14.06 478
14.08 521
14.1 507
14.12 476
14.14 472
14.16 497
14.18 481
14.2 496
14.22 474
14.24 507
14.26 527
14.28 487
14.3 495
14.32 499
14.34 519
14.36 464
14.38 537
14.4 521
14.42 511
14.44 516
14.46 516
14.48 579
14.5 535
14.52 535
14.54 531
14.56 486
14.58 482
14.6 526
14.62 485
14.64 531
14.66 581
14.68 527
14.7 541
14.72 565
14.74 523
14.76 518
14.78 532
14.8 547
14.82 477
14.84 535
14.86 540
14.88 538
14.9 542
14.92 493
14.94 536
14.96 531
14.98 527
15 492
15.02 545
15.04 472
15.06 503
15.08 535
15.1 511
15.12 535
15.14 574
15.16 530
15.18 567
15.2 590
15.22 550
15.24 580
15.26 538
15.28 550
15.3 525
15.32 542
15.34 534
15.36 548
15.38 548
15.4 563
15.42 533
15.44 491
15.46 518
15.48 575
15.5 529
15.52 534
15.54 499
15.56 523
15.58 564
15.6 530
15.62 582
15.64 562
15.66 551
15.68 556
15.7 595
15.72 542
15.74 552
15.76 546
15.78 523
15.8 580
15.82 589
15.84 597
15.86 563
15.88 540
15.9 568
15.92 588
15.94 599
15.96 583
15.98 542
16 577
16.02 610
16.04 554
16.06 586
16.08 596
16.1 582
16.12 607
16.14 544
16.16 569
16.18 582
16.2 589
16.22 615
16.24 565
16.26 597
16.28 568
16.3 559
16.32 584
16.34 622
16.36 575
16.38 588
16.4 628
16.42 588
16.44 619
16.46 601
16.48 604
16.5 584
16.52 664
16.54 644
16.56 624
16.58 617
16.6 649
16.62 591
16.64 648
16.66 610
16.68 644
16.7 628
16.72 646
16.74 595
16.76 603
16.78 628
16.8 630
16.82 685
16.84 617
16.86 631
16.88 610
16.9 666
16.92 633
16.94 681
16.96 715
16.98 665
17 660
17.02 705
17.04 712
17.06 663
17.08 657
17.1 674
17.12 694
17.14 634
17.16 686
17.18 714
17.2 700
17.22 733
17.24 731
17.26 690
17.28 692
17.3 689
17.32 763
17.34 668
17.36 685
17.38 725
17.4 668
17.42 721
17.44 644
17.46 731
17.48 723
17.5 656
17.52 733
17.54 690
17.56 726
17.58 731
17.6 662
17.62 685
17.64 691
17.66 667
17.68 736
17.7 745
17.72 705
17.74 716
17.76 763
17.78 696
17.8 784
17.82 752
17.84 716
17.86 741
17.88 770
17.9 729
17.92 754
17.94 750
17.96 701
17.98 754
18 737
18.02 751
18.04 715
18.06 767
18.08 735
18.1 730
18.12 724
18.14 747
18.16 755
18.18 728
18.2 733
18.22 758
18.24 735
18.26 767
18.28 759
18.3 797
18.32 763
18.34 760
18.36 755
18.38 764
18.4 787
18.42 829
18.44 774
18.46 748
18.48 831
18.5 765
18.52 857
18.54 810
18.56 823
18.58 782
18.6 819
18.62 781
18.64 825
18.66 795
18.68 771
18.7 818
18.72 742
18.74 778
18.76 821
18.78 829
18.8 825
18.82 822
18.84 831
18.86 797
18.88 826
18.9 858
18.92 854
18.94 871
18.96 857
18.98 855
19 897
19.02 894
19.04 802
19.06 850
19.08 852
19.1 842
19.12 877
19.14 905
19.16 880
19.18 891
19.2 912
19.22 935
19.24 893
19.26 849
19.28 860
19.3 921
19.32 934
19.34 935
19.36 909
19.38 917
19.4 918
19.42 955
19.44 902
19.46 930
19.48 950
19.5 937
19.52 966
19.54 961
19.56 910
19.58 920
19.6 905
19.62 918
19.64 905
19.66 948
19.68 919
19.7 961
19.72 923
19.74 966
19.76 983
19.78 1000
19.8 947
19.82 982
19.84 994
19.86 956
19.88 969
19.9 967
19.92 952
19.94 943
19.96 920
19.98 939
20 959