File: xrd-UiO-67/pxrddata/7-37.ASC
3 1876
3.02 1648
3.04 1545
3.06 1495
3.08 1347
3.1 1338
3.12 1281
3.14 1224
3.16 1217
3.18 1243
3.2 1128
3.22 1105
3.24 1160
3.26 1163
3.28 1114
3.3 1039
3.32 1131
3.34 1006
3.36 1048
3.38 1045
3.4 950
3.42 1021
3.44 1035
3.46 985
3.48 986
3.5 1017
3.52 933
3.54 959
3.56 979
3.58 915
3.6 890
3.62 964
3.64 886
3.66 958
3.68 883
3.7 899
3.72 902
3.74 844
3.76 882
3.78 856
3.8 855
3.82 871
3.84 779
3.86 781
3.88 793
3.9 817
3.92 773
3.94 764
3.96 766
3.98 778
4 783
4.02 747
4.04 747
4.06 738
4.08 717
4.1 731
4.12 676
4.14 758
4.16 712
4.18 691
4.2 699
4.22 714
4.24 683
4.26 688
4.28 695
4.3 672
4.32 608
4.34 683
4.36 672
4.38 665
4.4 704
4.42 649
4.44 653
4.46 631
4.48 629
4.5 654
4.52 678
4.54 584
4.56 606
4.58 585
4.6 635
4.62 594
4.64 602
4.66 550
4.68 599
4.7 549
4.72 615
4.74 596
4.76 598
4.78 580
4.8 535
4.82 588
4.84 554
4.86 539
4.88 539
4.9 586
4.92 551
4.94 535
4.96 539
4.98 534
5 567
5.02 564
5.04 535
5.06 521
5.08 545
5.1 533
5.12 563
5.14 505
5.16 496
5.18 525
5.2 515
5.22 484
5.24 498
5.26 539
5.28 539
5.3 530
5.32 495
5.34 518
5.36 480
5.38 509
5.4 498
5.42 508
5.44 483
5.46 520
5.48 497
5.5 527
5.52 533
5.54 494
5.56 525
5.58 503
5.6 507
5.62 480
5.64 521
5.66 504
5.68 501
5.7 516
5.72 558
5.74 501
5.76 511
5.78 489
5.8 478
5.82 487
5.84 503
5.86 521
5.88 475
5.9 498
5.92 476
5.94 493
5.96 525
5.98 508
6 491
6.02 491
6.04 483
6.06 460
6.08 489
6.1 473
6.12 460
6.14 511
6.16 490
6.18 470
6.2 469
6.22 469
6.24 494
6.26 493
6.28 473
6.3 482
6.32 495
6.34 490
6.36 502
6.38 517
6.4 461
6.42 472
6.44 472
6.46 458
6.48 471
6.5 455
6.52 490
6.54 508
6.56 492
6.58 497
6.6 461
6.62 514
6.64 472
6.66 483
6.68 502
6.7 478
6.72 441
6.74 471
6.76 504
6.78 470
6.8 465
6.82 479
6.84 469
6.86 475
6.88 486
6.9 486
6.92 439
6.94 496
6.96 486
6.98 466
7 491
7.02 499
7.04 505
7.06 443
7.08 471
7.1 479
7.12 461
7.14 485
7.16 507
7.18 482
7.2 507
7.22 489
7.24 472
7.26 465
7.28 464
7.3 490
7.32 459
7.34 471
7.36 516
7.38 477
7.4 458
7.42 457
7.44 488
7.46 487
7.48 452
7.5 470
7.52 467
7.54 482
7.56 459
7.58 438
7.6 509
7.62 487
7.64 508
7.66 469
7.68 446
7.7 490
7.72 470
7.74 437
7.76 484
7.78 429
7.8 501
7.82 453
7.84 454
7.86 441
7.88 450
7.9 507
7.92 482
7.94 425
7.96 443
7.98 478
8 451
8.02 469
8.04 450
8.06 466
8.08 452
8.1 451
8.12 442
8.14 484
8.16 446
8.18 466
8.2 486
8.22 443
8.24 459
8.26 446
8.28 453
8.3 460
8.32 458
8.34 467
8.36 489
8.38 482
8.4 443
8.42 449
8.44 449
8.46 470
8.48 481
8.5 453
8.52 472
8.54 470
8.56 475
8.58 468
8.6 468
8.62 461
8.64 482
8.66 480
8.68 473
8.7 493
8.72 494
8.74 504
8.76 500
8.78 548
8.8 503
8.82 490
8.84 533
8.86 557
8.88 548
8.9 569
8.92 593
8.94 627
8.96 606
8.98 634
9 644
9.02 679
9.04 723
9.06 722
9.08 796
9.1 798
9.12 835
9.14 923
9.16 912
9.18 985
9.2 995
9.22 1032
9.24 1161
9.26 1184
9.28 1163
9.3 1163
9.32 1062
9.34 1070
9.36 994
9.38 932
9.4 853
9.42 829
9.44 726
9.46 693
9.48 719
9.5 591
9.52 565
9.54 568
9.56 539
9.58 520
9.6 535
9.62 520
9.64 516
9.66 505
9.68 506
9.7 519
9.72 542
9.74 574
9.76 507
9.78 523
9.8 546
9.82 522
9.84 554
9.86 554
9.88 543
9.9 579
9.92 635
9.94 599
9.96 659
9.98 677
10 683
10.02 724
10.04 753
10.06 751
10.08 783
10.1 824
10.12 796
10.14 811
10.16 806
10.18 806
10.2 759
10.22 661
10.24 637
10.26 618
10.28 601
10.3 574
10.32 548
10.34 492
10.36 460
10.38 461
10.4 489
10.42 469
10.44 470
10.46 440
10.48 450
10.5 425
10.52 449
10.54 444
10.56 419
10.58 414
10.6 385
10.62 428
10.64 440
10.66 412
10.68 418
10.7 405
10.72 398
10.74 393
10.76 410
10.78 406
10.8 426
10.82 415
10.84 430
10.86 389
10.88 416
10.9 441
10.92 404
10.94 389
10.96 396
10.98 400
11 429
11.02 391
11.04 367
11.06 412
11.08 398
11.1 382
11.12 373
11.14 391
11.16 419
11.18 442
11.2 410
11.22 433
11.24 415
11.26 406
11.28 417
11.3 406
11.32 424
11.34 418
11.36 394
11.38 422
11.4 428
11.42 421
11.44 426
11.46 464
11.48 403
11.5 440
11.52 432
11.54 450
11.56 405
11.58 408
11.6 405
11.62 431
11.64 356
11.66 393
11.68 368
11.7 429
11.72 389
11.74 373
11.76 372
11.78 426
11.8 375
11.82 445
11.84 367
11.86 379
11.88 374
11.9 358
11.92 387
11.94 392
11.96 404
11.98 362
12 385
12.02 408
12.04 373
12.06 386
12.08 335
12.1 382
12.12 383
12.14 417
12.16 391
12.18 411
12.2 372
12.22 367
12.24 412
12.26 379
12.28 381
12.3 405
12.32 341
12.34 377
12.36 403
12.38 392
12.4 388
12.42 368
12.44 374
12.46 391
12.48 398
12.5 371
12.52 355
12.54 409
12.56 428
12.58 403
12.6 416
12.62 440
12.64 430
12.66 428
12.68 485
12.7 456
12.72 462
12.74 456
12.76 500
12.78 474
12.8 507
12.82 487
12.84 539
12.86 477
12.88 489
12.9 471
12.92 497
12.94 507
12.96 472
12.98 496
13 465
13.02 414
13.04 437
13.06 434
13.08 396
13.1 441
13.12 441
13.14 406
13.16 376
13.18 403
13.2 442
13.22 419
13.24 425
13.26 420
13.28 379
13.3 407
13.32 414
13.34 431
13.36 409
13.38 399
13.4 421
13.42 410
13.44 420
13.46 414
13.48 387
13.5 438
13.52 440
13.54 386
13.56 403
13.58 424
13.6 356
13.62 434
13.64 402
13.66 416
13.68 402
13.7 413
13.72 372
13.74 413
13.76 394
13.78 382
13.8 366
13.82 388
13.84 413
13.86 391
13.88 400
13.9 408
13.92 442
13.94 417
13.96 393
13.98 365
14 395
14.02 384
14.04 389
14.06 369
14.08 366
14.1 406
14.12 388
14.14 380
14.16 381
14.18 400
14.2 375
14.22 384
14.24 424
14.26 372
14.28 414
14.3 450
14.32 414
14.34 424
14.36 443
14.38 416
14.4 458
14.42 434
14.44 422
14.46 443
14.48 419
14.5 426
14.52 415
14.54 399
14.56 379
14.58 383
14.6 383
14.62 433
14.64 386
14.66 378
14.68 395
14.7 398
14.72 389
14.74 374
14.76 390
14.78 389
14.8 418
14.82 405
14.84 369
14.86 368
14.88 411
14.9 430
14.92 384
14.94 406
14.96 411
14.98 401
15 429
15.02 395
15.04 417
15.06 380
15.08 414
15.1 431
15.12 389
15.14 399
15.16 417
15.18 426
15.2 422
15.22 402
15.24 414
15.26 409
15.28 406
15.3 403
15.32 429
15.34 395
15.36 409
15.38 416
15.4 441
15.42 392
15.44 422
15.46 414
15.48 416
15.5 436
15.52 441
15.54 412
15.56 467
15.58 430
15.6 420
15.62 387
15.64 415
15.66 402
15.68 418
15.7 414
15.72 425
15.74 393
15.76 469
15.78 448
15.8 422
15.82 407
15.84 426
15.86 447
15.88 412
15.9 423
15.92 443
15.94 426
15.96 433
15.98 429
16 452
16.02 414
16.04 431
16.06 430
16.08 432
16.1 438
16.12 423
16.14 436
16.16 413
16.18 449
16.2 433
16.22 470
16.24 435
16.26 451
16.28 445
16.3 425
16.32 428
16.34 395
16.36 416
16.38 436
16.4 445
16.42 438
16.44 440
16.46 425
16.48 446
16.5 406
16.52 424
16.54 439
16.56 430
16.58 412
16.6 485
16.62 505
16.64 428
16.66 456
16.68 436
16.7 432
16.72 458
16.74 488
16.76 464
16.78 465
16.8 486
16.82 435
16.84 459
16.86 464
16.88 507
16.9 520
16.92 538
16.94 539
16.96 538
16.98 563
17 561
17.02 593
17.04 579
17.06 535
17.08 530
17.1 552
17.12 542
17.14 587
17.16 547
17.18 567
17.2 568
17.22 550
17.24 518
17.26 491
17.28 511
17.3 490
17.32 493
17.34 488
17.36 471
17.38 504
17.4 439
17.42 459
17.44 476
17.46 463
17.48 472
17.5 509
17.52 453
17.54 488
17.56 464
17.58 502
17.6 503
17.62 497
17.64 494
17.66 467
17.68 497
17.7 455
17.72 480
17.74 502
17.76 467
17.78 512
17.8 512
17.82 477
17.84 489
17.86 489
17.88 483
17.9 538
17.92 562
17.94 489
17.96 453
17.98 499
18 494
18.02 478
18.04 506
18.06 466
18.08 540
18.1 555
18.12 534
18.14 525
18.16 513
18.18 491
18.2 517
18.22 512
18.24 498
18.26 521
18.28 511
18.3 510
18.32 525
18.34 575
18.36 573
18.38 587
18.4 561
18.42 596
18.44 570
18.46 569
18.48 563
18.5 590
18.52 584
18.54 584
18.56 579
18.58 619
18.6 651
18.62 562
18.64 552
18.66 560
18.68 575
18.7 574
18.72 498
18.74 549
18.76 530
18.78 541
18.8 517
18.82 543
18.84 548
18.86 582
18.88 556
18.9 557
18.92 548
18.94 570
18.96 576
18.98 572
19 560
19.02 542
19.04 525
19.06 516
19.08 523
19.1 508
19.12 532
19.14 556
19.16 541
19.18 545
19.2 570
19.22 559
19.24 574
19.26 554
19.28 554
19.3 581
19.32 528
19.34 548
19.36 545
19.38 520
19.4 573
19.42 582
19.44 525
19.46 598
19.48 541
19.5 560
19.52 578
19.54 554
19.56 584
19.58 569
19.6 590
19.62 576
19.64 618
19.66 565
19.68 606
19.7 554
19.72 574
19.74 584
19.76 615
19.78 627
19.8 602
19.82 597
19.84 609
19.86 602
19.88 645
19.9 648
19.92 672
19.94 588
19.96 575
19.98 633
20 641