File: xrd-UiO-67/pxrddata/7-38.ASC
3 2391
3.02 2414
3.04 2111
3.06 2084
3.08 1999
3.1 1953
3.12 1849
3.14 1891
3.16 1787
3.18 1771
3.2 1710
3.22 1741
3.24 1688
3.26 1699
3.28 1650
3.3 1615
3.32 1598
3.34 1618
3.36 1608
3.38 1600
3.4 1613
3.42 1599
3.44 1575
3.46 1518
3.48 1593
3.5 1559
3.52 1558
3.54 1532
3.56 1496
3.58 1468
3.6 1453
3.62 1468
3.64 1492
3.66 1485
3.68 1400
3.7 1449
3.72 1504
3.74 1531
3.76 1468
3.78 1469
3.8 1440
3.82 1477
3.84 1400
3.86 1424
3.88 1404
3.9 1424
3.92 1408
3.94 1323
3.96 1472
3.98 1344
4 1415
4.02 1338
4.04 1330
4.06 1306
4.08 1383
4.1 1343
4.12 1269
4.14 1358
4.16 1371
4.18 1341
4.2 1326
4.22 1347
4.24 1318
4.26 1338
4.28 1370
4.3 1305
4.32 1367
4.34 1353
4.36 1380
4.38 1279
4.4 1286
4.42 1314
4.44 1327
4.46 1252
4.48 1264
4.5 1337
4.52 1246
4.54 1263
4.56 1303
4.58 1274
4.6 1264
4.62 1291
4.64 1293
4.66 1247
4.68 1354
4.7 1305
4.72 1313
4.74 1267
4.76 1342
4.78 1230
4.8 1305
4.82 1296
4.84 1304
4.86 1241
4.88 1397
4.9 1325
4.92 1285
4.94 1345
4.96 1395
4.98 1368
5 1350
5.02 1366
5.04 1384
5.06 1388
5.08 1444
5.1 1392
5.12 1422
5.14 1424
5.16 1412
5.18 1402
5.2 1459
5.22 1441
5.24 1513
5.26 1552
5.28 1533
5.3 1563
5.32 1605
5.34 1645
5.36 1635
5.38 1651
5.4 1675
5.42 1627
5.44 1655
5.46 1665
5.48 1743
5.5 1789
5.52 1824
5.54 1797
5.56 1830
5.58 1796
5.6 1777
5.62 1864
5.64 1868
5.66 1836
5.68 1907
5.7 1816
5.72 1835
5.74 1823
5.76 1768
5.78 1748
5.8 1689
5.82 1651
5.84 1660
5.86 1657
5.88 1555
5.9 1555
5.92 1484
5.94 1409
5.96 1452
5.98 1360
6 1355
6.02 1248
6.04 1229
6.06 1297
6.08 1175
6.1 1178
6.12 1169
6.14 1262
6.16 1221
6.18 1140
6.2 1171
6.22 1182
6.24 1145
6.26 1103
6.28 1137
6.3 1098
6.32 1146
6.34 1077
6.36 1088
6.38 1112
6.4 1114
6.42 1146
6.44 1101
6.46 1002
6.48 1095
6.5 1064
6.52 1048
6.54 1085
6.56 1071
6.58 1011
6.6 1032
6.62 1074
6.64 1059
6.66 1081
6.68 1041
6.7 1071
6.72 1057
6.74 973
6.76 1048
6.78 1045
6.8 1047
6.82 1011
6.84 1026
6.86 964
6.88 1079
6.9 1001
6.92 1002
6.94 1045
6.96 991
6.98 1017
7 960
7.02 1015
7.04 988
7.06 954
7.08 924
7.1 926
7.12 948
7.14 948
7.16 934
7.18 950
7.2 911
7.22 938
7.24 965
7.26 949
7.28 952
7.3 968
7.32 915
7.34 970
7.36 883
7.38 925
7.4 917
7.42 946
7.44 880
7.46 893
7.48 920
7.5 948
7.52 891
7.54 833
7.56 848
7.58 843
7.6 909
7.62 885
7.64 820
7.66 880
7.68 866
7.7 844
7.72 869
7.74 885
7.76 785
7.78 830
7.8 813
7.82 806
7.84 844
7.86 885
7.88 881
7.9 852
7.92 823
7.94 808
7.96 787
7.98 809
8 831
8.02 804
8.04 787
8.06 802
8.08 839
8.1 825
8.12 781
8.14 835
8.16 828
8.18 859
8.2 813
8.22 865
8.24 792
8.26 777
8.28 809
8.3 801
8.32 803
8.34 815
8.36 813
8.38 822
8.4 819
8.42 792
8.44 810
8.46 812
8.48 852
8.5 787
8.52 753
8.54 800
8.56 764
8.58 798
8.6 775
8.62 842
8.64 805
8.66 805
8.68 822
8.7 832
8.72 781
8.74 785
8.76 826
8.78 812
8.8 812
8.82 825
8.84 792
8.86 805
8.88 849
8.9 794
8.92 814
8.94 756
8.96 838
8.98 827
9 810
9.02 784
9.04 814
9.06 819
9.08 879
9.1 828
9.12 872
9.14 879
9.16 908
9.18 939
9.2 938
9.22 891
9.24 926
9.26 959
9.28 928
9.3 978
9.32 1000
9.34 970
9.36 928
9.38 926
9.4 945
9.42 905
9.44 870
9.46 906
9.48 803
9.5 774
9.52 804
9.54 847
9.56 836
9.58 832
9.6 764
9.62 802
9.64 835
9.66 797
9.68 817
9.7 785
9.72 771
9.74 794
9.76 800
9.78 811
9.8 765
9.82 790
9.84 805
9.86 812
9.88 790
9.9 787
9.92 748
9.94 778
9.96 797
9.98 785
10 762
10.02 774
10.04 801
10.06 768
10.08 833
10.1 782
10.12 788
10.14 748
10.16 799
10.18 786
10.2 824
10.22 784
10.24 776
10.26 773
10.28 767
10.3 726
10.32 775
10.34 780
10.36 767
10.38 805
10.4 773
10.42 780
10.44 792
10.46 789
10.48 723
10.5 733
10.52 758
10.54 780
10.56 790
10.58 774
10.6 784
10.62 774
10.64 750
10.66 779
10.68 783
10.7 812
10.72 862
10.74 840
10.76 762
10.78 870
10.8 811
10.82 926
10.84 890
10.86 864
10.88 898
10.9 858
10.92 840
10.94 862
10.96 839
10.98 867
11 847
11.02 843
11.04 905
11.06 817
11.08 763
11.1 754
11.12 773
11.14 790
11.16 845
11.18 774
11.2 752
11.22 784
11.24 832
11.26 836
11.28 795
11.3 758
11.32 777
11.34 773
11.36 758
11.38 720
11.4 765
11.42 726
11.44 743
11.46 790
11.48 721
11.5 757
11.52 750
11.54 689
11.56 799
11.58 733
11.6 779
11.62 735
11.64 771
11.66 678
11.68 760
11.7 713
11.72 760
11.74 737
11.76 771
11.78 807
11.8 764
11.82 720
11.84 743
11.86 732
11.88 775
11.9 733
11.92 727
11.94 709
11.96 720
11.98 684
12 767
12.02 707
12.04 748
12.06 719
12.08 690
12.1 747
12.12 759
12.14 769
12.16 769
12.18 773
12.2 750
12.22 738
12.24 720
12.26 801
12.28 733
12.3 724
12.32 730
12.34 780
12.36 722
12.38 723
12.4 754
12.42 745
12.44 705
12.46 708
12.48 771
12.5 748
12.52 700
12.54 747
12.56 777
12.58 734
12.6 759
12.62 743
12.64 753
12.66 693
12.68 737
12.7 730
12.72 722
12.74 709
12.76 666
12.78 678
12.8 774
12.82 744
12.84 718
12.86 747
12.88 706
12.9 725
12.92 740
12.94 777
12.96 747
12.98 751
13 740
13.02 785
13.04 717
13.06 740
13.08 699
13.1 726
13.12 697
13.14 689
13.16 694
13.18 749
13.2 733
13.22 764
13.24 742
13.26 749
13.28 748
13.3 755
13.32 764
13.34 734
13.36 727
13.38 766
13.4 743
13.42 787
13.44 782
13.46 703
13.48 760
13.5 736
13.52 730
13.54 750
13.56 759
13.58 789
13.6 766
13.62 756
13.64 733
13.66 771
13.68 747
13.7 758
13.72 792
13.74 754
13.76 748
13.78 740
13.8 726
13.82 780
13.84 751
13.86 786
13.88 813
13.9 767
13.92 767
13.94 742
13.96 737
13.98 770
14 813
14.02 838
14.04 792
14.06 839
14.08 767
14.1 718
14.12 778
14.14 729
14.16 771
14.18 825
14.2 820
14.22 817
14.24 837
14.26 777
14.28 796
14.3 762
14.32 805
14.34 804
14.36 805
14.38 825
14.4 822
14.42 830
14.44 830
14.46 826
14.48 815
14.5 838
14.52 814
14.54 791
14.56 845
14.58 838
14.6 858
14.62 816
14.64 756
14.66 830
14.68 803
14.7 821
14.72 787
14.74 824
14.76 820
14.78 817
14.8 807
14.82 834
14.84 854
14.86 817
14.88 811
14.9 851
14.92 863
14.94 833
14.96 825
14.98 857
15 854
15.02 833
15.04 838
15.06 839
15.08 853
15.1 867
15.12 857
15.14 819
15.16 865
15.18 808
15.2 860
15.22 801
15.24 860
15.26 904
15.28 853
15.3 896
15.32 792
15.34 915
15.36 854
15.38 889
15.4 840
15.42 845
15.44 859
15.46 884
15.48 873
15.5 883
15.52 823
15.54 873
15.56 884
15.58 885
15.6 889
15.62 854
15.64 874
15.66 872
15.68 852
15.7 878
15.72 933
15.74 903
15.76 850
15.78 899
15.8 878
15.82 865
15.84 904
15.86 918
15.88 869
15.9 883
15.92 893
15.94 914
15.96 900
15.98 904
16 907
16.02 943
16.04 955
16.06 954
16.08 968
16.1 972
16.12 977
16.14 895
16.16 917
16.18 934
16.2 971
16.22 927
16.24 893
16.26 990
16.28 954
16.3 940
16.32 912
16.34 1002
16.36 975
16.38 1008
16.4 987
16.42 989
16.44 989
16.46 995
16.48 962
16.5 1027
16.52 967
16.54 944
16.56 979
16.58 1003
16.6 952
16.62 965
16.64 1012
16.66 1005
16.68 1029
16.7 1023
16.72 992
16.74 1011
16.76 1031
16.78 988
16.8 1073
16.82 994
16.84 1029
16.86 1022
16.88 980
16.9 1016
16.92 1022
16.94 1045
16.96 1006
16.98 1061
17 1014
17.02 1066
17.04 1033
17.06 970
17.08 979
17.1 989
17.12 1051
17.14 997
17.16 1044
17.18 1073
17.2 1080
17.22 1058
17.24 1082
17.26 1079
17.28 1060
17.3 1074
17.32 1113
17.34 1147
17.36 1102
17.38 1051
17.4 1089
17.42 1103
17.44 1056
17.46 1057
17.48 1018
17.5 1172
17.52 1089
17.54 1110
17.56 1161
17.58 1067
17.6 1114
17.62 1124
17.64 1151
17.66 1126
17.68 1158
17.7 1142
17.72 1131
17.74 1120
17.76 1181
17.78 1151
17.8 1092
17.82 1146
17.84 1147
17.86 1111
17.88 1138
17.9 1150
17.92 1155
17.94 1199
17.96 1196
17.98 1184
18 1161
18.02 1155
18.04 1171
18.06 1242
18.08 1128
18.1 1121
18.12 1181
18.14 1178
18.16 1215
18.18 1231
18.2 1177
18.22 1248
18.24 1145
18.26 1202
18.28 1187
18.3 1199
18.32 1200
18.34 1158
18.36 1144
18.38 1215
18.4 1212
18.42 1209
18.44 1242
18.46 1201
18.48 1290
18.5 1231
18.52 1276
18.54 1164
18.56 1289
18.58 1202
18.6 1343
18.62 1284
18.64 1216
18.66 1246
18.68 1226
18.7 1318
18.72 1290
18.74 1252
18.76 1246
18.78 1343
18.8 1288
18.82 1251
18.84 1282
18.86 1259
18.88 1264
18.9 1233
18.92 1296
18.94 1350
18.96 1314
18.98 1315
19 1357
19.02 1336
19.04 1274
19.06 1313
19.08 1342
19.1 1358
19.12 1353
19.14 1368
19.16 1344
19.18 1343
19.2 1331
19.22 1314
19.24 1375
19.26 1335
19.28 1353
19.3 1346
19.32 1354
19.34 1326
19.36 1382
19.38 1386
19.4 1332
19.42 1399
19.44 1380
19.46 1381
19.48 1440
19.5 1452
19.52 1421
19.54 1441
19.56 1406
19.58 1423
19.6 1430
19.62 1423
19.64 1402
19.66 1456
19.68 1409
19.7 1426
19.72 1330
19.74 1450
19.76 1399
19.78 1368
19.8 1382
19.82 1411
19.84 1431
19.86 1362
19.88 1421
19.9 1419
19.92 1417
19.94 1394
19.96 1405
19.98 1433
20 1451