File: xrd-UiO-67/pxrddata/7-39.ASC
3 1989
3.02 2010
3.04 1821
3.06 1722
3.08 1606
3.1 1557
3.12 1530
3.14 1378
3.16 1381
3.18 1432
3.2 1409
3.22 1328
3.24 1346
3.26 1364
3.28 1294
3.3 1307
3.32 1276
3.34 1304
3.36 1290
3.38 1280
3.4 1202
3.42 1256
3.44 1210
3.46 1268
3.48 1198
3.5 1203
3.52 1160
3.54 1194
3.56 1144
3.58 1155
3.6 1150
3.62 1124
3.64 1081
3.66 1060
3.68 1099
3.7 1063
3.72 1093
3.74 1087
3.76 1055
3.78 991
3.8 1031
3.82 1017
3.84 1020
3.86 997
3.88 1029
3.9 1025
3.92 998
3.94 975
3.96 1023
3.98 971
4 1014
4.02 962
4.04 968
4.06 896
4.08 909
4.1 977
4.12 924
4.14 934
4.16 914
4.18 923
4.2 901
4.22 879
4.24 859
4.26 848
4.28 850
4.3 881
4.32 869
4.34 870
4.36 868
4.38 854
4.4 860
4.42 888
4.44 855
4.46 817
4.48 920
4.5 869
4.52 875
4.54 825
4.56 839
4.58 839
4.6 768
4.62 811
4.64 826
4.66 794
4.68 823
4.7 793
4.72 863
4.74 813
4.76 789
4.78 813
4.8 831
4.82 776
4.84 819
4.86 852
4.88 928
4.9 823
4.92 810
4.94 824
4.96 881
4.98 873
5 870
5.02 898
5.04 908
5.06 950
5.08 934
5.1 911
5.12 918
5.14 980
5.16 1015
5.18 988
5.2 995
5.22 985
5.24 998
5.26 1044
5.28 1095
5.3 1062
5.32 1136
5.34 1152
5.36 1201
5.38 1167
5.4 1193
5.42 1224
5.44 1312
5.46 1290
5.48 1304
5.5 1331
5.52 1390
5.54 1395
5.56 1423
5.58 1378
5.6 1447
5.62 1507
5.64 1413
5.66 1520
5.68 1540
5.7 1494
5.72 1536
5.74 1580
5.76 1563
5.78 1519
5.8 1523
5.82 1482
5.84 1431
5.86 1437
5.88 1433
5.9 1305
5.92 1213
5.94 1252
5.96 1204
5.98 1054
6 1051
6.02 1042
6.04 951
6.06 972
6.08 927
6.1 898
6.12 919
6.14 845
6.16 870
6.18 797
6.2 811
6.22 827
6.24 824
6.26 805
6.28 833
6.3 793
6.32 761
6.34 771
6.36 801
6.38 805
6.4 808
6.42 753
6.44 759
6.46 746
6.48 859
6.5 807
6.52 831
6.54 798
6.56 794
6.58 836
6.6 780
6.62 803
6.64 828
6.66 799
6.68 813
6.7 773
6.72 779
6.74 740
6.76 794
6.78 713
6.8 777
6.82 803
6.84 721
6.86 747
6.88 694
6.9 794
6.92 675
6.94 700
6.96 703
6.98 681
7 679
7.02 724
7.04 740
7.06 720
7.08 680
7.1 712
7.12 699
7.14 713
7.16 676
7.18 650
7.2 681
7.22 676
7.24 692
7.26 690
7.28 686
7.3 657
7.32 651
7.34 671
7.36 703
7.38 619
7.4 666
7.42 706
7.44 678
7.46 667
7.48 682
7.5 672
7.52 642
7.54 640
7.56 637
7.58 667
7.6 667
7.62 664
7.64 649
7.66 635
7.68 656
7.7 635
7.72 663
7.74 635
7.76 635
7.78 653
7.8 637
7.82 637
7.84 634
7.86 596
7.88 641
7.9 596
7.92 630
7.94 660
7.96 594
7.98 608
8 598
8.02 611
8.04 557
8.06 549
8.08 641
8.1 596
8.12 601
8.14 617
8.16 556
8.18 593
8.2 606
8.22 608
8.24 593
8.26 573
8.28 611
8.3 597
8.32 560
8.34 592
8.36 603
8.38 561
8.4 620
8.42 594
8.44 602
8.46 552
8.48 601
8.5 609
8.52 556
8.54 574
8.56 582
8.58 624
8.6 565
8.62 551
8.64 608
8.66 584
8.68 623
8.7 538
8.72 600
8.74 578
8.76 565
8.78 584
8.8 573
8.82 604
8.84 606
8.86 591
8.88 649
8.9 597
8.92 587
8.94 634
8.96 622
8.98 661
9 679
9.02 725
9.04 734
9.06 729
9.08 808
9.1 887
9.12 786
9.14 792
9.16 831
9.18 878
9.2 963
9.22 1222
9.24 1467
9.26 1724
9.28 1952
9.3 1901
9.32 1605
9.34 1333
9.36 1110
9.38 1027
9.4 954
9.42 948
9.44 922
9.46 812
9.48 809
9.5 818
9.52 740
9.54 734
9.56 718
9.58 649
9.6 649
9.62 709
9.64 658
9.66 644
9.68 633
9.7 624
9.72 649
9.74 598
9.76 614
9.78 635
9.8 625
9.82 634
9.84 600
9.86 576
9.88 620
9.9 621
9.92 605
9.94 650
9.96 621
9.98 589
10 615
10.02 639
10.04 612
10.06 580
10.08 567
10.1 604
10.12 589
10.14 621
10.16 583
10.18 612
10.2 625
10.22 619
10.24 554
10.26 592
10.28 591
10.3 600
10.32 611
10.34 582
10.36 578
10.38 591
10.4 603
10.42 605
10.44 576
10.46 618
10.48 569
10.5 597
10.52 607
10.54 602
10.56 595
10.58 636
10.6 639
10.62 636
10.64 657
10.66 644
10.68 659
10.7 637
10.72 662
10.74 690
10.76 627
10.78 689
10.8 711
10.82 718
10.84 674
10.86 721
10.88 737
10.9 749
10.92 722
10.94 745
10.96 732
10.98 742
11 736
11.02 789
11.04 741
11.06 755
11.08 709
11.1 706
11.12 678
11.14 689
11.16 693
11.18 681
11.2 664
11.22 641
11.24 656
11.26 639
11.28 625
11.3 638
11.32 666
11.34 612
11.36 626
11.38 610
11.4 630
11.42 635
11.44 608
11.46 664
11.48 652
11.5 627
11.52 626
11.54 652
11.56 571
11.58 592
11.6 585
11.62 573
11.64 552
11.66 590
11.68 575
11.7 577
11.72 574
11.74 590
11.76 579
11.78 569
11.8 566
11.82 630
11.84 587
11.86 570
11.88 565
11.9 547
11.92 576
11.94 553
11.96 553
11.98 537
12 541
12.02 560
12.04 595
12.06 568
12.08 556
12.1 560
12.12 542
12.14 565
12.16 531
12.18 536
12.2 528
12.22 556
12.24 566
12.26 519
12.28 551
12.3 576
12.32 538
12.34 557
12.36 556
12.38 539
12.4 525
12.42 569
12.44 536
12.46 543
12.48 561
12.5 548
12.52 515
12.54 541
12.56 511
12.58 528
12.6 560
12.62 556
12.64 559
12.66 517
12.68 549
12.7 560
12.72 543
12.74 518
12.76 586
12.78 545
12.8 518
12.82 527
12.84 531
12.86 560
12.88 545
12.9 555
12.92 565
12.94 548
12.96 508
12.98 538
13 558
13.02 521
13.04 530
13.06 527
13.08 551
13.1 548
13.12 538
13.14 555
13.16 565
13.18 534
13.2 497
13.22 568
13.24 558
13.26 574
13.28 542
13.3 569
13.32 569
13.34 555
13.36 597
13.38 531
13.4 563
13.42 574
13.44 533
13.46 574
13.48 571
13.5 566
13.52 546
13.54 578
13.56 572
13.58 530
13.6 578
13.62 556
13.64 543
13.66 558
13.68 528
13.7 553
13.72 568
13.74 534
13.76 578
13.78 583
13.8 577
13.82 525
13.84 554
13.86 563
13.88 555
13.9 570
13.92 553
13.94 553
13.96 564
13.98 577
14 561
14.02 560
14.04 628
14.06 559
14.08 577
14.1 545
14.12 595
14.14 560
14.16 586
14.18 580
14.2 539
14.22 619
14.24 542
14.26 593
14.28 566
14.3 560
14.32 618
14.34 628
14.36 607
14.38 574
14.4 649
14.42 618
14.44 620
14.46 586
14.48 671
14.5 613
14.52 642
14.54 606
14.56 644
14.58 675
14.6 589
14.62 611
14.64 608
14.66 676
14.68 573
14.7 600
14.72 580
14.74 602
14.76 603
14.78 590
14.8 599
14.82 626
14.84 649
14.86 648
14.88 605
14.9 589
14.92 623
14.94 637
14.96 618
14.98 640
15 633
15.02 586
15.04 643
15.06 603
15.08 581
15.1 607
15.12 625
15.14 600
15.16 642
15.18 624
15.2 609
15.22 623
15.24 593
15.26 591
15.28 616
15.3 607
15.32 646
15.34 615
15.36 598
15.38 663
15.4 594
15.42 609
15.44 630
15.46 628
15.48 636
15.5 632
15.52 613
15.54 646
15.56 623
15.58 666
15.6 623
15.62 631
15.64 670
15.66 619
15.68 586
15.7 639
15.72 630
15.74 625
15.76 581
15.78 608
15.8 634
15.82 630
15.84 638
15.86 668
15.88 619
15.9 617
15.92 671
15.94 693
15.96 701
15.98 658
16 658
16.02 623
16.04 656
16.06 656
16.08 646
16.1 664
16.12 644
16.14 669
16.16 653
16.18 663
16.2 677
16.22 653
16.24 729
16.26 666
16.28 650
16.3 656
16.32 702
16.34 668
16.36 688
16.38 656
16.4 669
16.42 683
16.44 616
16.46 665
16.48 654
16.5 722
16.52 648
16.54 648
16.56 662
16.58 725
16.6 686
16.62 686
16.64 662
16.66 681
16.68 718
16.7 741
16.72 684
16.74 771
16.76 732
16.78 715
16.8 708
16.82 710
16.84 665
16.86 753
16.88 729
16.9 703
16.92 703
16.94 767
16.96 738
16.98 768
17 753
17.02 783
17.04 777
17.06 758
17.08 706
17.1 746
17.12 756
17.14 782
17.16 783
17.18 774
17.2 782
17.22 783
17.24 791
17.26 751
17.28 818
17.3 798
17.32 791
17.34 819
17.36 788
17.38 746
17.4 762
17.42 764
17.44 742
17.46 819
17.48 759
17.5 791
17.52 809
17.54 797
17.56 782
17.58 791
17.6 784
17.62 789
17.64 766
17.66 735
17.68 816
17.7 850
17.72 762
17.74 782
17.76 780
17.78 761
17.8 769
17.82 789
17.84 797
17.86 828
17.88 836
17.9 769
17.92 855
17.94 800
17.96 835
17.98 815
18 817
18.02 773
18.04 838
18.06 848
18.08 849
18.1 885
18.12 838
18.14 843
18.16 811
18.18 818
18.2 802
18.22 788
18.24 805
18.26 830
18.28 851
18.3 806
18.32 837
18.34 850
18.36 841
18.38 829
18.4 859
18.42 893
18.44 880
18.46 825
18.48 883
18.5 881
18.52 935
18.54 894
18.56 881
18.58 870
18.6 878
18.62 923
18.64 906
18.66 878
18.68 893
18.7 906
18.72 932
18.74 924
18.76 899
18.78 901
18.8 927
18.82 974
18.84 952
18.86 928
18.88 956
18.9 926
18.92 963
18.94 974
18.96 917
18.98 960
19 930
19.02 951
19.04 1019
19.06 969
19.08 977
19.1 994
19.12 979
19.14 977
19.16 944
19.18 992
19.2 1017
19.22 983
19.24 968
19.26 1040
19.28 1010
19.3 969
19.32 1010
19.34 1034
19.36 997
19.38 1073
19.4 1080
19.42 993
19.44 1128
19.46 1063
19.48 1120
19.5 1092
19.52 1080
19.54 1094
19.56 1124
19.58 1152
19.6 1153
19.62 1126
19.64 1113
19.66 1053
19.68 1103
19.7 1074
19.72 1123
19.74 1071
19.76 1034
19.78 1008
19.8 1131
19.82 1083
19.84 1095
19.86 1102
19.88 1133
19.9 1076
19.92 1078
19.94 1081
19.96 1105
19.98 1076
20 1043