File: xrd-UiO-67/pxrddata/7-4.ASC
3 1703
3.02 1510
3.04 1494
3.06 1338
3.08 1302
3.1 1147
3.12 1165
3.14 1136
3.16 1108
3.18 1093
3.2 1068
3.22 1110
3.24 1112
3.26 1051
3.28 1027
3.3 1021
3.32 1040
3.34 1069
3.36 1036
3.38 1019
3.4 1057
3.42 1039
3.44 985
3.46 1010
3.48 984
3.5 1001
3.52 1002
3.54 1076
3.56 976
3.58 981
3.6 1008
3.62 1040
3.64 947
3.66 902
3.68 972
3.7 930
3.72 944
3.74 907
3.76 882
3.78 903
3.8 914
3.82 914
3.84 882
3.86 913
3.88 933
3.9 902
3.92 970
3.94 908
3.96 926
3.98 908
4 910
4.02 914
4.04 933
4.06 936
4.08 869
4.1 901
4.12 856
4.14 902
4.16 870
4.18 824
4.2 870
4.22 890
4.24 907
4.26 823
4.28 875
4.3 898
4.32 901
4.34 904
4.36 853
4.38 883
4.4 887
4.42 899
4.44 881
4.46 878
4.48 909
4.5 878
4.52 825
4.54 896
4.56 853
4.58 896
4.6 849
4.62 803
4.64 852
4.66 790
4.68 848
4.7 860
4.72 863
4.74 861
4.76 833
4.78 876
4.8 869
4.82 903
4.84 815
4.86 859
4.88 860
4.9 857
4.92 874
4.94 884
4.96 887
4.98 858
5 901
5.02 883
5.04 986
5.06 864
5.08 884
5.1 897
5.12 891
5.14 904
5.16 938
5.18 944
5.2 943
5.22 930
5.24 937
5.26 971
5.28 987
5.3 976
5.32 1018
5.34 1004
5.36 1024
5.38 968
5.4 1068
5.42 1008
5.44 1052
5.46 1058
5.48 1120
5.5 1112
5.52 1067
5.54 1109
5.56 1119
5.58 1127
5.6 1108
5.62 1129
5.64 1144
5.66 1153
5.68 1189
5.7 1147
5.72 1217
5.74 1275
5.76 1228
5.78 1258
5.8 1229
5.82 1260
5.84 1220
5.86 1207
5.88 1292
5.9 1229
5.92 1267
5.94 1256
5.96 1229
5.98 1246
6 1227
6.02 1159
6.04 1224
6.06 1139
6.08 1105
6.1 1133
6.12 1049
6.14 1076
6.16 1034
6.18 979
6.2 993
6.22 953
6.24 935
6.26 927
6.28 955
6.3 889
6.32 875
6.34 870
6.36 847
6.38 806
6.4 826
6.42 773
6.44 789
6.46 806
6.48 776
6.5 788
6.52 799
6.54 767
6.56 770
6.58 806
6.6 781
6.62 792
6.64 728
6.66 738
6.68 752
6.7 734
6.72 794
6.74 775
6.76 749
6.78 721
6.8 708
6.82 711
6.84 765
6.86 745
6.88 668
6.9 715
6.92 693
6.94 747
6.96 683
6.98 723
7 701
7.02 669
7.04 654
7.06 654
7.08 680
7.1 655
7.12 598
7.14 727
7.16 653
7.18 654
7.2 673
7.22 611
7.24 668
7.26 681
7.28 609
7.3 634
7.32 577
7.34 607
7.36 621
7.38 645
7.4 584
7.42 630
7.44 621
7.46 646
7.48 602
7.5 643
7.52 628
7.54 598
7.56 603
7.58 609
7.6 600
7.62 607
7.64 590
7.66 606
7.68 649
7.7 650
7.72 580
7.74 636
7.76 610
7.78 638
7.8 591
7.82 591
7.84 585
7.86 583
7.88 637
7.9 620
7.92 567
7.94 592
7.96 612
7.98 579
8 610
8.02 606
8.04 600
8.06 591
8.08 607
8.1 622
8.12 611
8.14 594
8.16 596
8.18 627
8.2 619
8.22 573
8.24 603
8.26 619
8.28 601
8.3 595
8.32 615
8.34 575
8.36 594
8.38 612
8.4 616
8.42 620
8.44 532
8.46 573
8.48 569
8.5 599
8.52 592
8.54 575
8.56 644
8.58 597
8.6 603
8.62 578
8.64 631
8.66 597
8.68 568
8.7 574
8.72 580
8.74 601
8.76 607
8.78 608
8.8 559
8.82 622
8.84 613
8.86 624
8.88 601
8.9 600
8.92 623
8.94 582
8.96 595
8.98 588
9 607
9.02 624
9.04 586
9.06 582
9.08 590
9.1 617
9.12 607
9.14 619
9.16 593
9.18 574
9.2 622
9.22 634
9.24 611
9.26 616
9.28 616
9.3 639
9.32 619
9.34 654
9.36 572
9.38 645
9.4 613
9.42 628
9.44 648
9.46 633
9.48 637
9.5 639
9.52 662
9.54 708
9.56 634
9.58 678
9.6 643
9.62 665
9.64 687
9.66 684
9.68 690
9.7 625
9.72 691
9.74 654
9.76 629
9.78 658
9.8 669
9.82 635
9.84 622
9.86 599
9.88 613
9.9 608
9.92 629
9.94 569
9.96 560
9.98 620
10 559
10.02 620
10.04 578
10.06 608
10.08 606
10.1 583
10.12 565
10.14 586
10.16 548
10.18 613
10.2 594
10.22 594
10.24 592
10.26 601
10.28 594
10.3 631
10.32 603
10.34 613
10.36 595
10.38 598
10.4 605
10.42 597
10.44 609
10.46 594
10.48 602
10.5 608
10.52 575
10.54 576
10.56 626
10.58 610
10.6 616
10.62 585
10.64 602
10.66 592
10.68 548
10.7 604
10.72 608
10.74 622
10.76 590
10.78 622
10.8 609
10.82 550
10.84 583
10.86 633
10.88 599
10.9 598
10.92 568
10.94 604
10.96 611
10.98 613
11 584
11.02 635
11.04 618
11.06 600
11.08 640
11.1 658
11.12 583
11.14 625
11.16 598
11.18 577
11.2 616
11.22 628
11.24 615
11.26 616
11.28 635
11.3 629
11.32 618
11.34 578
11.36 636
11.38 604
11.4 589
11.42 593
11.44 602
11.46 566
11.48 635
11.5 598
11.52 602
11.54 566
11.56 584
11.58 582
11.6 625
11.62 603
11.64 604
11.66 535
11.68 589
11.7 587
11.72 578
11.74 627
11.76 571
11.78 637
11.8 556
11.82 545
11.84 560
11.86 557
11.88 565
11.9 547
11.92 563
11.94 561
11.96 573
11.98 592
12 592
12.02 601
12.04 559
12.06 569
12.08 586
12.1 566
12.12 545
12.14 574
12.16 573
12.18 597
12.2 571
12.22 547
12.24 553
12.26 569
12.28 538
12.3 569
12.32 554
12.34 520
12.36 578
12.38 579
12.4 546
12.42 550
12.44 569
12.46 566
12.48 574
12.5 569
12.52 567
12.54 551
12.56 604
12.58 581
12.6 569
12.62 579
12.64 548
12.66 550
12.68 544
12.7 548
12.72 537
12.74 536
12.76 570
12.78 549
12.8 541
12.82 540
12.84 545
12.86 552
12.88 560
12.9 561
12.92 567
12.94 521
12.96 551
12.98 582
13 567
13.02 596
13.04 568
13.06 567
13.08 576
13.1 570
13.12 593
13.14 513
13.16 563
13.18 569
13.2 525
13.22 548
13.24 587
13.26 517
13.28 592
13.3 567
13.32 630
13.34 579
13.36 575
13.38 587
13.4 609
13.42 592
13.44 578
13.46 578
13.48 552
13.5 616
13.52 533
13.54 551
13.56 573
13.58 587
13.6 576
13.62 548
13.64 649
13.66 565
13.68 571
13.7 567
13.72 581
13.74 564
13.76 581
13.78 567
13.8 542
13.82 582
13.84 590
13.86 617
13.88 604
13.9 622
13.92 581
13.94 615
13.96 643
13.98 587
14 629
14.02 582
14.04 645
14.06 590
14.08 594
14.1 587
14.12 603
14.14 597
14.16 556
14.18 546
14.2 627
14.22 583
14.24 594
14.26 621
14.28 581
14.3 601
14.32 580
14.34 605
14.36 608
14.38 622
14.4 618
14.42 649
14.44 568
14.46 641
14.48 651
14.5 642
14.52 601
14.54 654
14.56 577
14.58 641
14.6 622
14.62 630
14.64 664
14.66 620
14.68 650
14.7 612
14.72 598
14.74 629
14.76 661
14.78 622
14.8 608
14.82 624
14.84 620
14.86 643
14.88 658
14.9 616
14.92 615
14.94 623
14.96 662
14.98 642
15 656
15.02 627
15.04 687
15.06 643
15.08 654
15.1 657
15.12 621
15.14 659
15.16 630
15.18 643
15.2 665
15.22 647
15.24 702
15.26 642
15.28 653
15.3 641
15.32 654
15.34 634
15.36 655
15.38 667
15.4 647
15.42 708
15.44 654
15.46 645
15.48 678
15.5 691
15.52 666
15.54 643
15.56 736
15.58 697
15.6 675
15.62 701
15.64 685
15.66 698
15.68 643
15.7 684
15.72 702
15.74 663
15.76 684
15.78 709
15.8 703
15.82 678
15.84 722
15.86 696
15.88 726
15.9 678
15.92 706
15.94 695
15.96 697
15.98 741
16 716
16.02 698
16.04 731
16.06 713
16.08 740
16.1 764
16.12 741
16.14 723
16.16 716
16.18 712
16.2 748
16.22 765
16.24 777
16.26 748
16.28 750
16.3 775
16.32 783
16.34 680
16.36 733
16.38 736
16.4 786
16.42 763
16.44 769
16.46 729
16.48 749
16.5 772
16.52 808
16.54 788
16.56 744
16.58 776
16.6 802
16.62 759
16.64 749
16.66 797
16.68 803
16.7 817
16.72 774
16.74 784
16.76 784
16.78 780
16.8 781
16.82 819
16.84 792
16.86 831
16.88 838
16.9 791
16.92 774
16.94 801
16.96 811
16.98 838
17 818
17.02 828
17.04 855
17.06 849
17.08 860
17.1 840
17.12 867
17.14 879
17.16 847
17.18 984
17.2 977
17.22 1003
17.24 995
17.26 959
17.28 1051
17.3 971
17.32 950
17.34 969
17.36 926
17.38 913
17.4 868
17.42 910
17.44 885
17.46 869
17.48 905
17.5 879
17.52 942
17.54 873
17.56 927
17.58 911
17.6 909
17.62 867
17.64 902
17.66 915
17.68 946
17.7 930
17.72 935
17.74 883
17.76 866
17.78 955
17.8 937
17.82 957
17.84 966
17.86 955
17.88 966
17.9 924
17.92 933
17.94 883
17.96 881
17.98 984
18 980
18.02 946
18.04 943
18.06 904
18.08 937
18.1 920
18.12 918
18.14 939
18.16 949
18.18 971
18.2 986
18.22 978
18.24 985
18.26 979
18.28 969
18.3 996
18.32 995
18.34 959
18.36 1005
18.38 933
18.4 1035
18.42 1003
18.44 1030
18.46 1018
18.48 985
18.5 1009
18.52 972
18.54 1034
18.56 1052
18.58 1008
18.6 991
18.62 1078
18.64 1028
18.66 1040
18.68 990
18.7 1069
18.72 1007
18.74 1071
18.76 1047
18.78 1047
18.8 1065
18.82 1073
18.84 1088
18.86 1089
18.88 1083
18.9 1070
18.92 1081
18.94 1084
18.96 1061
18.98 1127
19 1110
19.02 1086
19.04 1103
19.06 1096
19.08 1096
19.1 1085
19.12 1085
19.14 1118
19.16 1137
19.18 1145
19.2 1146
19.22 1141
19.24 1082
19.26 1089
19.28 1099
19.3 1150
19.32 1106
19.34 1162
19.36 1209
19.38 1207
19.4 1159
19.42 1162
19.44 1198
19.46 1178
19.48 1153
19.5 1219
19.52 1212
19.54 1236
19.56 1168
19.58 1207
19.6 1123
19.62 1189
19.64 1172
19.66 1177
19.68 1248
19.7 1174
19.72 1243
19.74 1286
19.76 1250
19.78 1241
19.8 1269
19.82 1257
19.84 1199
19.86 1274
19.88 1211
19.9 1183
19.92 1215
19.94 1212
19.96 1270
19.98 1272
20 1251