File: xrd-UiO-67/pxrddata/7-6.ASC
3 2118
3.02 1841
3.04 1808
3.06 1705
3.08 1583
3.1 1474
3.12 1427
3.14 1381
3.16 1415
3.18 1399
3.2 1394
3.22 1379
3.24 1352
3.26 1372
3.28 1274
3.3 1313
3.32 1278
3.34 1303
3.36 1305
3.38 1280
3.4 1245
3.42 1283
3.44 1205
3.46 1281
3.48 1221
3.5 1232
3.52 1141
3.54 1191
3.56 1212
3.58 1187
3.6 1193
3.62 1104
3.64 1120
3.66 1161
3.68 1087
3.7 1161
3.72 1150
3.74 1132
3.76 1141
3.78 1107
3.8 1124
3.82 1099
3.84 1083
3.86 1107
3.88 1022
3.9 1021
3.92 1010
3.94 1027
3.96 1065
3.98 1005
4 1011
4.02 973
4.04 1006
4.06 1006
4.08 1003
4.1 927
4.12 949
4.14 980
4.16 971
4.18 981
4.2 941
4.22 973
4.24 927
4.26 938
4.28 933
4.3 947
4.32 886
4.34 912
4.36 950
4.38 950
4.4 931
4.42 894
4.44 952
4.46 869
4.48 881
4.5 842
4.52 919
4.54 819
4.56 859
4.58 906
4.6 884
4.62 871
4.64 867
4.66 892
4.68 855
4.7 865
4.72 801
4.74 836
4.76 827
4.78 808
4.8 838
4.82 854
4.84 856
4.86 865
4.88 823
4.9 851
4.92 766
4.94 782
4.96 827
4.98 811
5 833
5.02 776
5.04 803
5.06 767
5.08 782
5.1 770
5.12 796
5.14 775
5.16 806
5.18 805
5.2 795
5.22 804
5.24 770
5.26 832
5.28 757
5.3 798
5.32 797
5.34 789
5.36 815
5.38 787
5.4 765
5.42 760
5.44 780
5.46 780
5.48 741
5.5 751
5.52 763
5.54 762
5.56 796
5.58 817
5.6 803
5.62 781
5.64 801
5.66 772
5.68 776
5.7 828
5.72 765
5.74 811
5.76 822
5.78 753
5.8 740
5.82 763
5.84 821
5.86 764
5.88 780
5.9 761
5.92 739
5.94 802
5.96 807
5.98 769
6 780
6.02 805
6.04 788
6.06 754
6.08 763
6.1 797
6.12 752
6.14 764
6.16 780
6.18 806
6.2 697
6.22 715
6.24 766
6.26 772
6.28 780
6.3 787
6.32 748
6.34 779
6.36 786
6.38 764
6.4 789
6.42 791
6.44 766
6.46 739
6.48 745
6.5 775
6.52 718
6.54 721
6.56 761
6.58 757
6.6 766
6.62 809
6.64 774
6.66 742
6.68 781
6.7 764
6.72 750
6.74 774
6.76 725
6.78 805
6.8 777
6.82 775
6.84 794
6.86 740
6.88 766
6.9 767
6.92 760
6.94 738
6.96 758
6.98 781
7 770
7.02 727
7.04 720
7.06 781
7.08 744
7.1 777
7.12 746
7.14 737
7.16 743
7.18 730
7.2 722
7.22 717
7.24 817
7.26 757
7.28 764
7.3 755
7.32 724
7.34 717
7.36 784
7.38 771
7.4 735
7.42 736
7.44 738
7.46 756
7.48 744
7.5 740
7.52 784
7.54 796
7.56 794
7.58 738
7.6 729
7.62 780
7.64 758
7.66 773
7.68 722
7.7 717
7.72 727
7.74 749
7.76 761
7.78 781
7.8 761
7.82 771
7.84 730
7.86 782
7.88 732
7.9 795
7.92 761
7.94 743
7.96 762
7.98 806
8 713
8.02 774
8.04 679
8.06 711
8.08 782
8.1 764
8.12 692
8.14 756
8.16 769
8.18 759
8.2 743
8.22 735
8.24 760
8.26 674
8.28 748
8.3 745
8.32 784
8.34 702
8.36 728
8.38 749
8.4 718
8.42 686
8.44 733
8.46 744
8.48 730
8.5 696
8.52 733
8.54 719
8.56 724
8.58 708
8.6 747
8.62 746
8.64 784
8.66 701
8.68 738
8.7 728
8.72 782
8.74 782
8.76 722
8.78 762
8.8 757
8.82 744
8.84 747
8.86 712
8.88 720
8.9 708
8.92 744
8.94 738
8.96 739
8.98 745
9 757
9.02 738
9.04 713
9.06 738
9.08 734
9.1 758
9.12 697
9.14 708
9.16 727
9.18 703
9.2 718
9.22 722
9.24 690
9.26 722
9.28 721
9.3 713
9.32 727
9.34 710
9.36 743
9.38 704
9.4 706
9.42 715
9.44 692
9.46 701
9.48 727
9.5 727
9.52 681
9.54 682
9.56 686
9.58 718
9.6 700
9.62 746
9.64 726
9.66 709
9.68 688
9.7 757
9.72 670
9.74 681
9.76 714
9.78 715
9.8 714
9.82 728
9.84 735
9.86 737
9.88 672
9.9 706
9.92 715
9.94 724
9.96 665
9.98 684
10 741
10.02 710
10.04 717
10.06 700
10.08 680
10.1 702
10.12 707
10.14 749
10.16 738
10.18 625
10.2 727
10.22 702
10.24 736
10.26 731
10.28 690
10.3 706
10.32 705
10.34 711
10.36 687
10.38 705
10.4 742
10.42 729
10.44 673
10.46 673
10.48 693
10.5 725
10.52 652
10.54 707
10.56 668
10.58 694
10.6 717
10.62 725
10.64 703
10.66 723
10.68 688
10.7 694
10.72 691
10.74 709
10.76 694
10.78 665
10.8 653
10.82 726
10.84 668
10.86 675
10.88 713
10.9 683
10.92 659
10.94 695
10.96 718
10.98 690
11 685
11.02 674
11.04 698
11.06 667
11.08 684
11.1 736
11.12 701
11.14 707
11.16 701
11.18 739
11.2 697
11.22 752
11.24 705
11.26 709
11.28 694
11.3 692
11.32 683
11.34 694
11.36 739
11.38 683
11.4 701
11.42 723
11.44 715
11.46 705
11.48 672
11.5 674
11.52 681
11.54 738
11.56 694
11.58 687
11.6 645
11.62 677
11.64 709
11.66 744
11.68 698
11.7 672
11.72 684
11.74 649
11.76 709
11.78 702
11.8 681
11.82 717
11.84 693
11.86 707
11.88 716
11.9 682
11.92 643
11.94 700
11.96 701
11.98 712
12 751
12.02 746
12.04 749
12.06 640
12.08 677
12.1 661
12.12 691
12.14 711
12.16 729
12.18 732
12.2 686
12.22 672
12.24 689
12.26 684
12.28 717
12.3 693
12.32 673
12.34 714
12.36 711
12.38 708
12.4 715
12.42 659
12.44 696
12.46 670
12.48 704
12.5 680
12.52 684
12.54 679
12.56 688
12.58 705
12.6 689
12.62 706
12.64 679
12.66 675
12.68 709
12.7 685
12.72 691
12.74 691
12.76 678
12.78 708
12.8 708
12.82 646
12.84 706
12.86 687
12.88 693
12.9 678
12.92 693
12.94 721
12.96 680
12.98 716
13 661
13.02 732
13.04 724
13.06 685
13.08 702
13.1 709
13.12 706
13.14 666
13.16 691
13.18 708
13.2 682
13.22 668
13.24 693
13.26 680
13.28 700
13.3 691
13.32 730
13.34 716
13.36 729
13.38 705
13.4 682
13.42 728
13.44 697
13.46 701
13.48 712
13.5 706
13.52 691
13.54 700
13.56 709
13.58 717
13.6 698
13.62 720
13.64 680
13.66 726
13.68 720
13.7 706
13.72 737
13.74 771
13.76 710
13.78 679
13.8 682
13.82 701
13.84 790
13.86 711
13.88 720
13.9 740
13.92 718
13.94 722
13.96 723
13.98 704
14 697
14.02 737
14.04 729
14.06 703
14.08 678
14.1 723
14.12 708
14.14 757
14.16 713
14.18 731
14.2 756
14.22 715
14.24 669
14.26 723
14.28 692
14.3 775
14.32 757
14.34 722
14.36 700
14.38 735
14.4 733
14.42 754
14.44 767
14.46 774
14.48 724
14.5 723
14.52 736
14.54 730
14.56 764
14.58 737
14.6 687
14.62 694
14.64 800
14.66 721
14.68 708
14.7 723
14.72 724
14.74 752
14.76 750
14.78 746
14.8 740
14.82 721
14.84 737
14.86 759
14.88 768
14.9 712
14.92 721
14.94 790
14.96 800
14.98 732
15 731
15.02 757
15.04 819
15.06 738
15.08 760
15.1 784
15.12 779
15.14 767
15.16 736
15.18 822
15.2 770
15.22 774
15.24 755
15.26 801
15.28 803
15.3 807
15.32 787
15.34 817
15.36 803
15.38 779
15.4 781
15.42 784
15.44 788
15.46 798
15.48 819
15.5 788
15.52 835
15.54 813
15.56 763
15.58 773
15.6 747
15.62 815
15.64 785
15.66 819
15.68 822
15.7 838
15.72 802
15.74 768
15.76 805
15.78 838
15.8 792
15.82 809
15.84 818
15.86 870
15.88 797
15.9 864
15.92 793
15.94 847
15.96 869
15.98 847
16 887
16.02 821
16.04 809
16.06 790
16.08 855
16.1 822
16.12 865
16.14 829
16.16 873
16.18 851
16.2 834
16.22 855
16.24 867
16.26 819
16.28 869
16.3 826
16.32 833
16.34 814
16.36 848
16.38 902
16.4 856
16.42 870
16.44 838
16.46 866
16.48 895
16.5 843
16.52 894
16.54 915
16.56 898
16.58 944
16.6 921
16.62 878
16.64 885
16.66 974
16.68 919
16.7 953
16.72 946
16.74 970
16.76 969
16.78 979
16.8 998
16.82 1041
16.84 1010
16.86 1128
16.88 1147
16.9 1216
16.92 1390
16.94 1444
16.96 1530
16.98 1735
17 1867
17.02 1863
17.04 1978
17.06 1950
17.08 1928
17.1 1779
17.12 1701
17.14 1601
17.16 1473
17.18 1260
17.2 1287
17.22 1217
17.24 1112
17.26 1138
17.28 1089
17.3 1118
17.32 1045
17.34 993
17.36 985
17.38 1043
17.4 1024
17.42 1005
17.44 997
17.46 1057
17.48 1015
17.5 955
17.52 1007
17.54 996
17.56 970
17.58 1017
17.6 966
17.62 1030
17.64 936
17.66 1002
17.68 1002
17.7 1048
17.72 1005
17.74 1071
17.76 1019
17.78 1059
17.8 1017
17.82 976
17.84 995
17.86 998
17.88 1053
17.9 1034
17.92 1060
17.94 1027
17.96 1032
17.98 1071
18 1113
18.02 1076
18.04 1071
18.06 1069
18.08 1077
18.1 1091
18.12 1089
18.14 1086
18.16 1054
18.18 1107
18.2 1057
18.22 1052
18.24 1017
18.26 1123
18.28 1113
18.3 1099
18.32 1089
18.34 1088
18.36 1083
18.38 1116
18.4 1089
18.42 1111
18.44 1075
18.46 1084
18.48 1069
18.5 1152
18.52 1097
18.54 1208
18.56 1141
18.58 1172
18.6 1156
18.62 1121
18.64 1139
18.66 1129
18.68 1100
18.7 1150
18.72 1137
18.74 1166
18.76 1131
18.78 1127
18.8 1151
18.82 1162
18.84 1152
18.86 1190
18.88 1157
18.9 1194
18.92 1199
18.94 1186
18.96 1163
18.98 1221
19 1246
19.02 1246
19.04 1191
19.06 1220
19.08 1220
19.1 1184
19.12 1228
19.14 1161
19.16 1241
19.18 1203
19.2 1224
19.22 1161
19.24 1239
19.26 1222
19.28 1241
19.3 1227
19.32 1238
19.34 1223
19.36 1283
19.38 1247
19.4 1240
19.42 1281
19.44 1241
19.46 1303
19.48 1258
19.5 1263
19.52 1288
19.54 1303
19.56 1251
19.58 1277
19.6 1340
19.62 1277
19.64 1298
19.66 1292
19.68 1351
19.7 1289
19.72 1228
19.74 1344
19.76 1337
19.78 1298
19.8 1395
19.82 1390
19.84 1329
19.86 1314
19.88 1282
19.9 1345
19.92 1350
19.94 1348
19.96 1326
19.98 1353
20 1379