File: xrd-UiO-67/pxrddata/7-7.ASC
3 2072
3.02 1891
3.04 1870
3.06 1746
3.08 1665
3.1 1539
3.12 1555
3.14 1503
3.16 1489
3.18 1501
3.2 1430
3.22 1426
3.24 1437
3.26 1427
3.28 1444
3.3 1381
3.32 1347
3.34 1356
3.36 1418
3.38 1390
3.4 1428
3.42 1404
3.44 1344
3.46 1327
3.48 1320
3.5 1358
3.52 1299
3.54 1310
3.56 1358
3.58 1315
3.6 1334
3.62 1323
3.64 1302
3.66 1307
3.68 1307
3.7 1266
3.72 1227
3.74 1276
3.76 1311
3.78 1306
3.8 1323
3.82 1287
3.84 1396
3.86 1263
3.88 1246
3.9 1265
3.92 1216
3.94 1213
3.96 1261
3.98 1330
4 1344
4.02 1225
4.04 1244
4.06 1300
4.08 1324
4.1 1288
4.12 1257
4.14 1219
4.16 1288
4.18 1245
4.2 1228
4.22 1216
4.24 1273
4.26 1323
4.28 1219
4.3 1257
4.32 1231
4.34 1254
4.36 1281
4.38 1339
4.4 1226
4.42 1246
4.44 1284
4.46 1321
4.48 1239
4.5 1276
4.52 1279
4.54 1234
4.56 1264
4.58 1294
4.6 1304
4.62 1320
4.64 1257
4.66 1259
4.68 1336
4.7 1309
4.72 1295
4.74 1272
4.76 1321
4.78 1342
4.8 1333
4.82 1215
4.84 1348
4.86 1202
4.88 1263
4.9 1355
4.92 1299
4.94 1353
4.96 1371
4.98 1318
5 1318
5.02 1322
5.04 1309
5.06 1315
5.08 1350
5.1 1376
5.12 1364
5.14 1408
5.16 1319
5.18 1329
5.2 1367
5.22 1284
5.24 1291
5.26 1351
5.28 1338
5.3 1318
5.32 1328
5.34 1316
5.36 1359
5.38 1339
5.4 1289
5.42 1378
5.44 1249
5.46 1305
5.48 1386
5.5 1305
5.52 1305
5.54 1348
5.56 1303
5.58 1321
5.6 1326
5.62 1318
5.64 1265
5.66 1283
5.68 1316
5.7 1280
5.72 1280
5.74 1329
5.76 1231
5.78 1288
5.8 1176
5.82 1294
5.84 1217
5.86 1200
5.88 1207
5.9 1178
5.92 1175
5.94 1250
5.96 1223
5.98 1185
6 1233
6.02 1112
6.04 1186
6.06 1144
6.08 1183
6.1 1149
6.12 1232
6.14 1183
6.16 1082
6.18 1142
6.2 1116
6.22 1162
6.24 1161
6.26 1099
6.28 1124
6.3 1124
6.32 1093
6.34 1140
6.36 1110
6.38 1010
6.4 1054
6.42 1030
6.44 1014
6.46 1041
6.48 1029
6.5 1037
6.52 1001
6.54 1045
6.56 995
6.58 991
6.6 991
6.62 989
6.64 1025
6.66 948
6.68 995
6.7 939
6.72 985
6.74 1023
6.76 937
6.78 920
6.8 921
6.82 933
6.84 929
6.86 967
6.88 944
6.9 902
6.92 906
6.94 965
6.96 946
6.98 963
7 934
7.02 918
7.04 885
7.06 881
7.08 950
7.1 894
7.12 850
7.14 936
7.16 954
7.18 850
7.2 860
7.22 853
7.24 879
7.26 892
7.28 858
7.3 814
7.32 829
7.34 851
7.36 832
7.38 868
7.4 870
7.42 837
7.44 853
7.46 868
7.48 815
7.5 833
7.52 833
7.54 844
7.56 899
7.58 879
7.6 881
7.62 814
7.64 771
7.66 796
7.68 846
7.7 805
7.72 821
7.74 877
7.76 862
7.78 839
7.8 799
7.82 833
7.84 783
7.86 874
7.88 871
7.9 823
7.92 830
7.94 838
7.96 815
7.98 795
8 821
8.02 800
8.04 852
8.06 808
8.08 784
8.1 813
8.12 819
8.14 840
8.16 858
8.18 795
8.2 845
8.22 790
8.24 825
8.26 803
8.28 805
8.3 759
8.32 814
8.34 775
8.36 842
8.38 774
8.4 770
8.42 794
8.44 781
8.46 789
8.48 743
8.5 815
8.52 822
8.54 817
8.56 811
8.58 793
8.6 812
8.62 814
8.64 851
8.66 809
8.68 797
8.7 800
8.72 756
8.74 780
8.76 760
8.78 807
8.8 790
8.82 798
8.84 820
8.86 794
8.88 839
8.9 786
8.92 781
8.94 810
8.96 797
8.98 785
9 809
9.02 798
9.04 790
9.06 775
9.08 792
9.1 806
9.12 775
9.14 815
9.16 790
9.18 831
9.2 787
9.22 802
9.24 814
9.26 841
9.28 824
9.3 782
9.32 778
9.34 777
9.36 777
9.38 803
9.4 795
9.42 853
9.44 763
9.46 768
9.48 807
9.5 784
9.52 745
9.54 760
9.56 850
9.58 838
9.6 791
9.62 806
9.64 812
9.66 793
9.68 812
9.7 796
9.72 754
9.74 864
9.76 812
9.78 782
9.8 755
9.82 793
9.84 798
9.86 735
9.88 787
9.9 819
9.92 778
9.94 815
9.96 811
9.98 742
10 823
10.02 848
10.04 791
10.06 867
10.08 796
10.1 818
10.12 840
10.14 816
10.16 811
10.18 811
10.2 787
10.22 806
10.24 777
10.26 771
10.28 806
10.3 800
10.32 788
10.34 781
10.36 769
10.38 782
10.4 818
10.42 867
10.44 834
10.46 800
10.48 763
10.5 764
10.52 826
10.54 806
10.56 773
10.58 823
10.6 770
10.62 807
10.64 800
10.66 834
10.68 770
10.7 839
10.72 822
10.74 754
10.76 739
10.78 824
10.8 788
10.82 865
10.84 833
10.86 812
10.88 810
10.9 793
10.92 809
10.94 848
10.96 787
10.98 757
11 784
11.02 819
11.04 820
11.06 803
11.08 760
11.1 815
11.12 788
11.14 764
11.16 773
11.18 771
11.2 817
11.22 821
11.24 827
11.26 813
11.28 747
11.3 835
11.32 815
11.34 784
11.36 805
11.38 757
11.4 783
11.42 812
11.44 847
11.46 836
11.48 804
11.5 784
11.52 764
11.54 836
11.56 823
11.58 833
11.6 768
11.62 836
11.64 812
11.66 751
11.68 792
11.7 744
11.72 781
11.74 770
11.76 764
11.78 787
11.8 780
11.82 845
11.84 850
11.86 759
11.88 787
11.9 802
11.92 783
11.94 786
11.96 793
11.98 785
12 766
12.02 816
12.04 810
12.06 836
12.08 793
12.1 806
12.12 797
12.14 832
12.16 844
12.18 793
12.2 797
12.22 850
12.24 816
12.26 800
12.28 766
12.3 792
12.32 801
12.34 795
12.36 791
12.38 821
12.4 868
12.42 823
12.44 785
12.46 819
12.48 815
12.5 833
12.52 802
12.54 822
12.56 799
12.58 776
12.6 772
12.62 841
12.64 795
12.66 813
12.68 774
12.7 818
12.72 803
12.74 828
12.76 842
12.78 808
12.8 794
12.82 775
12.84 843
12.86 838
12.88 870
12.9 815
12.92 848
12.94 775
12.96 773
12.98 777
13 820
13.02 825
13.04 808
13.06 778
13.08 812
13.1 780
13.12 823
13.14 831
13.16 880
13.18 847
13.2 820
13.22 826
13.24 880
13.26 876
13.28 867
13.3 876
13.32 799
13.34 841
13.36 836
13.38 822
13.4 846
13.42 824
13.44 786
13.46 853
13.48 863
13.5 818
13.52 824
13.54 857
13.56 868
13.58 852
13.6 841
13.62 845
13.64 846
13.66 868
13.68 887
13.7 832
13.72 843
13.74 854
13.76 883
13.78 836
13.8 814
13.82 880
13.84 888
13.86 858
13.88 838
13.9 840
13.92 873
13.94 862
13.96 832
13.98 872
14 858
14.02 871
14.04 851
14.06 883
14.08 860
14.1 892
14.12 916
14.14 858
14.16 908
14.18 888
14.2 937
14.22 879
14.24 894
14.26 895
14.28 893
14.3 909
14.32 846
14.34 952
14.36 891
14.38 830
14.4 843
14.42 928
14.44 924
14.46 928
14.48 930
14.5 915
14.52 904
14.54 914
14.56 910
14.58 932
14.6 880
14.62 922
14.64 905
14.66 906
14.68 951
14.7 916
14.72 870
14.74 887
14.76 892
14.78 891
14.8 970
14.82 921
14.84 947
14.86 942
14.88 924
14.9 921
14.92 911
14.94 995
14.96 948
14.98 962
15 948
15.02 965
15.04 981
15.06 960
15.08 923
15.1 940
15.12 979
15.14 979
15.16 1016
15.18 983
15.2 945
15.22 975
15.24 1031
15.26 996
15.28 984
15.3 984
15.32 991
15.34 976
15.36 1043
15.38 1025
15.4 985
15.42 971
15.44 999
15.46 1048
15.48 1019
15.5 990
15.52 1039
15.54 1038
15.56 1006
15.58 1109
15.6 1034
15.62 1012
15.64 1049
15.66 1010
15.68 1097
15.7 1022
15.72 1032
15.74 1039
15.76 1029
15.78 1058
15.8 1082
15.82 1049
15.84 1072
15.86 1075
15.88 1078
15.9 1047
15.92 1139
15.94 1092
15.96 1090
15.98 1067
16 1111
16.02 1065
16.04 1055
16.06 1043
16.08 1080
16.1 1098
16.12 1072
16.14 1105
16.16 1106
16.18 1103
16.2 1098
16.22 1124
16.24 1127
16.26 1112
16.28 1143
16.3 1195
16.32 1110
16.34 1130
16.36 1159
16.38 1084
16.4 1177
16.42 1130
16.44 1135
16.46 1167
16.48 1167
16.5 1214
16.52 1111
16.54 1149
16.56 1183
16.58 1122
16.6 1164
16.62 1218
16.64 1162
16.66 1127
16.68 1193
16.7 1237
16.72 1214
16.74 1230
16.76 1269
16.78 1272
16.8 1283
16.82 1319
16.84 1399
16.86 1352
16.88 1342
16.9 1437
16.92 1626
16.94 1552
16.96 1651
16.98 1763
17 1861
17.02 1846
17.04 1847
17.06 1832
17.08 1788
17.1 1697
17.12 1623
17.14 1579
17.16 1593
17.18 1546
17.2 1491
17.22 1486
17.24 1479
17.26 1499
17.28 1491
17.3 1392
17.32 1399
17.34 1486
17.36 1419
17.38 1431
17.4 1401
17.42 1295
17.44 1338
17.46 1352
17.48 1359
17.5 1346
17.52 1322
17.54 1349
17.56 1365
17.58 1278
17.6 1317
17.62 1365
17.64 1361
17.66 1433
17.68 1346
17.7 1363
17.72 1483
17.74 1364
17.76 1387
17.78 1376
17.8 1374
17.82 1377
17.84 1410
17.86 1413
17.88 1484
17.9 1398
17.92 1469
17.94 1390
17.96 1454
17.98 1447
18 1400
18.02 1403
18.04 1440
18.06 1419
18.08 1466
18.1 1474
18.12 1454
18.14 1405
18.16 1524
18.18 1424
18.2 1508
18.22 1468
18.24 1498
18.26 1489
18.28 1548
18.3 1493
18.32 1485
18.34 1524
18.36 1471
18.38 1535
18.4 1563
18.42 1447
18.44 1538
18.46 1560
18.48 1520
18.5 1557
18.52 1533
18.54 1596
18.56 1635
18.58 1515
18.6 1507
18.62 1568
18.64 1581
18.66 1485
18.68 1554
18.7 1560
18.72 1560
18.74 1596
18.76 1506
18.78 1649
18.8 1661
18.82 1608
18.84 1596
18.86 1628
18.88 1640
18.9 1609
18.92 1664
18.94 1633
18.96 1625
18.98 1601
19 1644
19.02 1637
19.04 1668
19.06 1618
19.08 1602
19.1 1650
19.12 1670
19.14 1634
19.16 1666
19.18 1608
19.2 1593
19.22 1671
19.24 1712
19.26 1603
19.28 1649
19.3 1685
19.32 1689
19.34 1700
19.36 1685
19.38 1722
19.4 1664
19.42 1732
19.44 1722
19.46 1695
19.48 1657
19.5 1670
19.52 1701
19.54 1733
19.56 1779
19.58 1657
19.6 1673
19.62 1678
19.64 1748
19.66 1698
19.68 1745
19.7 1730
19.72 1709
19.74 1747
19.76 1764
19.78 1843
19.8 1764
19.82 1764
19.84 1787
19.86 1777
19.88 1794
19.9 1797
19.92 1781
19.94 1708
19.96 1774
19.98 1755
20 1748