File: xrd-UiO-67/pxrddata/7-8.ASC
3 2348
3.02 2283
3.04 2107
3.06 1947
3.08 1820
3.1 1704
3.12 1759
3.14 1689
3.16 1777
3.18 1709
3.2 1633
3.22 1702
3.24 1622
3.26 1574
3.28 1653
3.3 1562
3.32 1553
3.34 1580
3.36 1584
3.38 1532
3.4 1520
3.42 1429
3.44 1452
3.46 1489
3.48 1398
3.5 1434
3.52 1385
3.54 1426
3.56 1380
3.58 1348
3.6 1363
3.62 1361
3.64 1334
3.66 1342
3.68 1300
3.7 1289
3.72 1329
3.74 1301
3.76 1243
3.78 1240
3.8 1290
3.82 1272
3.84 1272
3.86 1224
3.88 1236
3.9 1223
3.92 1222
3.94 1156
3.96 1181
3.98 1177
4 1202
4.02 1104
4.04 1164
4.06 1107
4.08 1140
4.1 1127
4.12 1170
4.14 1110
4.16 1078
4.18 1013
4.2 1128
4.22 1141
4.24 1063
4.26 1068
4.28 1023
4.3 1094
4.32 1046
4.34 1031
4.36 1026
4.38 1051
4.4 1021
4.42 1058
4.44 1008
4.46 1001
4.48 970
4.5 1003
4.52 974
4.54 1025
4.56 998
4.58 1008
4.6 994
4.62 1003
4.64 976
4.66 929
4.68 953
4.7 1011
4.72 951
4.74 958
4.76 956
4.78 1019
4.8 982
4.82 923
4.84 960
4.86 954
4.88 930
4.9 927
4.92 929
4.94 847
4.96 887
4.98 972
5 919
5.02 905
5.04 922
5.06 898
5.08 875
5.1 914
5.12 951
5.14 911
5.16 892
5.18 873
5.2 939
5.22 937
5.24 893
5.26 918
5.28 934
5.3 943
5.32 884
5.34 873
5.36 909
5.38 810
5.4 877
5.42 920
5.44 874
5.46 860
5.48 879
5.5 894
5.52 895
5.54 851
5.56 860
5.58 813
5.6 833
5.62 878
5.64 895
5.66 907
5.68 862
5.7 906
5.72 866
5.74 835
5.76 842
5.78 892
5.8 825
5.82 825
5.84 866
5.86 873
5.88 842
5.9 925
5.92 905
5.94 854
5.96 859
5.98 842
6 803
6.02 816
6.04 861
6.06 895
6.08 872
6.1 844
6.12 888
6.14 855
6.16 845
6.18 815
6.2 800
6.22 839
6.24 826
6.26 848
6.28 832
6.3 836
6.32 853
6.34 842
6.36 885
6.38 864
6.4 871
6.42 826
6.44 848
6.46 847
6.48 826
6.5 854
6.52 833
6.54 818
6.56 836
6.58 810
6.6 833
6.62 848
6.64 819
6.66 839
6.68 775
6.7 837
6.72 772
6.74 865
6.76 860
6.78 853
6.8 844
6.82 858
6.84 804
6.86 861
6.88 798
6.9 864
6.92 831
6.94 828
6.96 860
6.98 838
7 864
7.02 813
7.04 822
7.06 834
7.08 757
7.1 823
7.12 823
7.14 810
7.16 813
7.18 777
7.2 793
7.22 804
7.24 797
7.26 808
7.28 807
7.3 858
7.32 844
7.34 797
7.36 806
7.38 821
7.4 815
7.42 811
7.44 791
7.46 796
7.48 820
7.5 806
7.52 772
7.54 822
7.56 785
7.58 742
7.6 846
7.62 802
7.64 809
7.66 857
7.68 784
7.7 782
7.72 838
7.74 806
7.76 811
7.78 822
7.8 817
7.82 767
7.84 822
7.86 809
7.88 776
7.9 829
7.92 766
7.94 830
7.96 824
7.98 801
8 773
8.02 759
8.04 802
8.06 767
8.08 765
8.1 811
8.12 814
8.14 808
8.16 809
8.18 829
8.2 745
8.22 788
8.24 810
8.26 794
8.28 791
8.3 775
8.32 764
8.34 800
8.36 770
8.38 783
8.4 798
8.42 762
8.44 706
8.46 769
8.48 756
8.5 772
8.52 753
8.54 711
8.56 717
8.58 729
8.6 780
8.62 776
8.64 747
8.66 785
8.68 777
8.7 777
8.72 783
8.74 774
8.76 798
8.78 722
8.8 802
8.82 764
8.84 804
8.86 782
8.88 772
8.9 790
8.92 803
8.94 745
8.96 737
8.98 695
9 740
9.02 785
9.04 746
9.06 778
9.08 773
9.1 730
9.12 733
9.14 750
9.16 767
9.18 715
9.2 737
9.22 725
9.24 742
9.26 777
9.28 763
9.3 726
9.32 743
9.34 727
9.36 758
9.38 749
9.4 753
9.42 728
9.44 755
9.46 696
9.48 732
9.5 718
9.52 734
9.54 756
9.56 694
9.58 763
9.6 728
9.62 759
9.64 779
9.66 755
9.68 742
9.7 743
9.72 719
9.74 739
9.76 683
9.78 751
9.8 744
9.82 772
9.84 770
9.86 809
9.88 739
9.9 705
9.92 757
9.94 741
9.96 675
9.98 718
10 748
10.02 716
10.04 730
10.06 704
10.08 719
10.1 724
10.12 722
10.14 741
10.16 724
10.18 686
10.2 725
10.22 718
10.24 759
10.26 736
10.28 720
10.3 730
10.32 772
10.34 745
10.36 755
10.38 678
10.4 735
10.42 724
10.44 678
10.46 712
10.48 719
10.5 708
10.52 663
10.54 706
10.56 716
10.58 726
10.6 750
10.62 771
10.64 704
10.66 737
10.68 725
10.7 724
10.72 731
10.74 756
10.76 720
10.78 746
10.8 708
10.82 733
10.84 743
10.86 734
10.88 718
10.9 706
10.92 692
10.94 734
10.96 715
10.98 747
11 736
11.02 741
11.04 691
11.06 732
11.08 684
11.1 701
11.12 701
11.14 648
11.16 716
11.18 735
11.2 688
11.22 741
11.24 713
11.26 755
11.28 710
11.3 740
11.32 696
11.34 666
11.36 665
11.38 723
11.4 729
11.42 741
11.44 653
11.46 730
11.48 763
11.5 676
11.52 699
11.54 759
11.56 695
11.58 726
11.6 677
11.62 711
11.64 716
11.66 699
11.68 719
11.7 709
11.72 730
11.74 759
11.76 731
11.78 726
11.8 734
11.82 712
11.84 720
11.86 753
11.88 708
11.9 750
11.92 695
11.94 740
11.96 715
11.98 713
12 701
12.02 682
12.04 752
12.06 768
12.08 705
12.1 714
12.12 736
12.14 716
12.16 719
12.18 718
12.2 750
12.22 756
12.24 768
12.26 691
12.28 745
12.3 726
12.32 737
12.34 790
12.36 701
12.38 751
12.4 719
12.42 703
12.44 723
12.46 740
12.48 731
12.5 705
12.52 741
12.54 732
12.56 703
12.58 684
12.6 724
12.62 719
12.64 739
12.66 772
12.68 773
12.7 762
12.72 762
12.74 698
12.76 748
12.78 773
12.8 742
12.82 727
12.84 710
12.86 741
12.88 756
12.9 752
12.92 731
12.94 774
12.96 707
12.98 727
13 762
13.02 758
13.04 730
13.06 707
13.08 783
13.1 742
13.12 774
13.14 760
13.16 722
13.18 750
13.2 701
13.22 733
13.24 762
13.26 702
13.28 807
13.3 750
13.32 731
13.34 705
13.36 790
13.38 793
13.4 789
13.42 781
13.44 784
13.46 748
13.48 770
13.5 754
13.52 686
13.54 730
13.56 768
13.58 780
13.6 728
13.62 757
13.64 753
13.66 819
13.68 744
13.7 766
13.72 748
13.74 751
13.76 742
13.78 761
13.8 752
13.82 772
13.84 762
13.86 724
13.88 769
13.9 718
13.92 738
13.94 757
13.96 738
13.98 770
14 804
14.02 739
14.04 790
14.06 773
14.08 837
14.1 772
14.12 760
14.14 814
14.16 791
14.18 805
14.2 833
14.22 745
14.24 757
14.26 767
14.28 832
14.3 774
14.32 754
14.34 767
14.36 795
14.38 778
14.4 786
14.42 786
14.44 768
14.46 732
14.48 768
14.5 828
14.52 782
14.54 722
14.56 792
14.58 749
14.6 830
14.62 802
14.64 791
14.66 797
14.68 846
14.7 857
14.72 810
14.74 795
14.76 857
14.78 861
14.8 846
14.82 850
14.84 829
14.86 836
14.88 807
14.9 823
14.92 841
14.94 785
14.96 833
14.98 814
15 792
15.02 817
15.04 778
15.06 791
15.08 811
15.1 828
15.12 804
15.14 790
15.16 836
15.18 875
15.2 816
15.22 850
15.24 798
15.26 889
15.28 841
15.3 843
15.32 845
15.34 807
15.36 827
15.38 821
15.4 865
15.42 813
15.44 861
15.46 906
15.48 905
15.5 870
15.52 875
15.54 816
15.56 865
15.58 802
15.6 880
15.62 873
15.64 892
15.66 847
15.68 884
15.7 900
15.72 900
15.74 861
15.76 851
15.78 854
15.8 820
15.82 892
15.84 941
15.86 898
15.88 850
15.9 879
15.92 901
15.94 929
15.96 937
15.98 870
16 854
16.02 954
16.04 876
16.06 887
16.08 873
16.1 902
16.12 944
16.14 908
16.16 948
16.18 960
16.2 927
16.22 937
16.24 909
16.26 933
16.28 938
16.3 941
16.32 946
16.34 957
16.36 965
16.38 978
16.4 943
16.42 979
16.44 959
16.46 975
16.48 970
16.5 934
16.52 953
16.54 993
16.56 978
16.58 949
16.6 997
16.62 1019
16.64 1020
16.66 1003
16.68 1014
16.7 1016
16.72 1091
16.74 1068
16.76 1032
16.78 1097
16.8 1074
16.82 1125
16.84 1168
16.86 1236
16.88 1218
16.9 1340
16.92 1425
16.94 1529
16.96 1571
16.98 1699
17 1835
17.02 1826
17.04 1770
17.06 1853
17.08 1884
17.1 1820
17.12 1795
17.14 1947
17.16 1843
17.18 1803
17.2 1686
17.22 1623
17.24 1500
17.26 1373
17.28 1262
17.3 1155
17.32 1208
17.34 1126
17.36 1161
17.38 1110
17.4 1136
17.42 1155
17.44 1093
17.46 1099
17.48 1119
17.5 1095
17.52 1121
17.54 1118
17.56 1164
17.58 1167
17.6 1161
17.62 1079
17.64 1133
17.66 1183
17.68 1213
17.7 1197
17.72 1143
17.74 1069
17.76 1106
17.78 1115
17.8 1131
17.82 1137
17.84 1168
17.86 1182
17.88 1122
17.9 1140
17.92 1194
17.94 1190
17.96 1212
17.98 1188
18 1181
18.02 1162
18.04 1230
18.06 1201
18.08 1211
18.1 1146
18.12 1204
18.14 1248
18.16 1216
18.18 1242
18.2 1182
18.22 1201
18.24 1215
18.26 1193
18.28 1262
18.3 1244
18.32 1214
18.34 1246
18.36 1252
18.38 1253
18.4 1258
18.42 1255
18.44 1268
18.46 1319
18.48 1254
18.5 1251
18.52 1298
18.54 1321
18.56 1358
18.58 1364
18.6 1261
18.62 1289
18.64 1268
18.66 1277
18.68 1273
18.7 1285
18.72 1299
18.74 1293
18.76 1316
18.78 1338
18.8 1306
18.82 1309
18.84 1385
18.86 1348
18.88 1296
18.9 1387
18.92 1358
18.94 1374
18.96 1307
18.98 1397
19 1372
19.02 1359
19.04 1340
19.06 1364
19.08 1393
19.1 1415
19.12 1372
19.14 1417
19.16 1389
19.18 1486
19.2 1424
19.22 1346
19.24 1469
19.26 1366
19.28 1442
19.3 1422
19.32 1435
19.34 1417
19.36 1375
19.38 1445
19.4 1404
19.42 1469
19.44 1457
19.46 1481
19.48 1484
19.5 1465
19.52 1392
19.54 1455
19.56 1472
19.58 1486
19.6 1475
19.62 1446
19.64 1473
19.66 1478
19.68 1479
19.7 1464
19.72 1428
19.74 1478
19.76 1507
19.78 1536
19.8 1457
19.82 1586
19.84 1505
19.86 1569
19.88 1595
19.9 1562
19.92 1533
19.94 1508
19.96 1506
19.98 1530
20 1561