File: xrd-UiO-67/pxrddata/7-9.ASC
3 1979
3.02 1701
3.04 1625
3.06 1482
3.08 1408
3.1 1365
3.12 1297
3.14 1261
3.16 1201
3.18 1216
3.2 1216
3.22 1245
3.24 1150
3.26 1165
3.28 1174
3.3 1126
3.32 1102
3.34 1086
3.36 1177
3.38 1127
3.4 998
3.42 1095
3.44 1089
3.46 1000
3.48 1037
3.5 1035
3.52 1053
3.54 974
3.56 972
3.58 967
3.6 992
3.62 1007
3.64 998
3.66 984
3.68 973
3.7 953
3.72 921
3.74 938
3.76 881
3.78 916
3.8 912
3.82 863
3.84 897
3.86 824
3.88 841
3.9 861
3.92 861
3.94 813
3.96 848
3.98 814
4 847
4.02 779
4.04 802
4.06 788
4.08 826
4.1 772
4.12 797
4.14 776
4.16 715
4.18 770
4.2 706
4.22 743
4.24 730
4.26 727
4.28 702
4.3 729
4.32 697
4.34 684
4.36 703
4.38 687
4.4 710
4.42 709
4.44 693
4.46 695
4.48 666
4.5 688
4.52 639
4.54 649
4.56 640
4.58 632
4.6 643
4.62 634
4.64 637
4.66 644
4.68 610
4.7 618
4.72 616
4.74 608
4.76 584
4.78 611
4.8 623
4.82 592
4.84 559
4.86 597
4.88 601
4.9 573
4.92 525
4.94 614
4.96 586
4.98 563
5 576
5.02 544
5.04 552
5.06 556
5.08 529
5.1 545
5.12 582
5.14 550
5.16 525
5.18 515
5.2 519
5.22 566
5.24 518
5.26 498
5.28 493
5.3 544
5.32 553
5.34 524
5.36 528
5.38 535
5.4 533
5.42 535
5.44 531
5.46 520
5.48 505
5.5 519
5.52 493
5.54 510
5.56 507
5.58 503
5.6 476
5.62 505
5.64 485
5.66 484
5.68 504
5.7 514
5.72 554
5.74 471
5.76 475
5.78 512
5.8 506
5.82 471
5.84 512
5.86 503
5.88 483
5.9 499
5.92 519
5.94 478
5.96 520
5.98 485
6 513
6.02 496
6.04 460
6.06 501
6.08 484
6.1 467
6.12 528
6.14 503
6.16 524
6.18 445
6.2 493
6.22 485
6.24 516
6.26 492
6.28 526
6.3 504
6.32 480
6.34 447
6.36 501
6.38 475
6.4 480
6.42 503
6.44 504
6.46 546
6.48 474
6.5 515
6.52 468
6.54 484
6.56 477
6.58 482
6.6 503
6.62 486
6.64 512
6.66 503
6.68 470
6.7 488
6.72 496
6.74 489
6.76 506
6.78 501
6.8 453
6.82 485
6.84 482
6.86 506
6.88 487
6.9 454
6.92 517
6.94 454
6.96 467
6.98 493
7 464
7.02 458
7.04 474
7.06 504
7.08 478
7.1 470
7.12 504
7.14 463
7.16 486
7.18 484
7.2 542
7.22 478
7.24 470
7.26 499
7.28 475
7.3 522
7.32 522
7.34 481
7.36 503
7.38 499
7.4 441
7.42 501
7.44 483
7.46 447
7.48 471
7.5 451
7.52 460
7.54 497
7.56 439
7.58 487
7.6 450
7.62 502
7.64 432
7.66 473
7.68 471
7.7 466
7.72 473
7.74 494
7.76 515
7.78 490
7.8 475
7.82 444
7.84 473
7.86 469
7.88 495
7.9 452
7.92 469
7.94 457
7.96 435
7.98 449
8 451
8.02 452
8.04 480
8.06 503
8.08 460
8.1 483
8.12 486
8.14 462
8.16 486
8.18 481
8.2 474
8.22 447
8.24 464
8.26 456
8.28 454
8.3 443
8.32 475
8.34 462
8.36 516
8.38 452
8.4 462
8.42 498
8.44 475
8.46 466
8.48 480
8.5 480
8.52 505
8.54 535
8.56 487
8.58 480
8.6 515
8.62 565
8.64 526
8.66 513
8.68 519
8.7 563
8.72 577
8.74 583
8.76 647
8.78 692
8.8 738
8.82 690
8.84 797
8.86 858
8.88 892
8.9 939
8.92 1074
8.94 1136
8.96 1199
8.98 1284
9 1479
9.02 1369
9.04 1386
9.06 1335
9.08 1200
9.1 1201
9.12 1079
9.14 981
9.16 934
9.18 941
9.2 911
9.22 947
9.24 871
9.26 813
9.28 773
9.3 699
9.32 664
9.34 651
9.36 548
9.38 545
9.4 513
9.42 537
9.44 537
9.46 511
9.48 497
9.5 549
9.52 501
9.54 508
9.56 513
9.58 478
9.6 534
9.62 496
9.64 521
9.66 495
9.68 559
9.7 500
9.72 552
9.74 577
9.76 586
9.78 613
9.8 629
9.82 618
9.84 694
9.86 694
9.88 792
9.9 812
9.92 881
9.94 978
9.96 1078
9.98 990
10 912
10.02 856
10.04 744
10.06 759
10.08 726
10.1 805
10.12 804
10.14 809
10.16 803
10.18 740
10.2 704
10.22 590
10.24 584
10.26 515
10.28 500
10.3 467
10.32 473
10.34 443
10.36 439
10.38 422
10.4 434
10.42 461
10.44 443
10.46 437
10.48 408
10.5 437
10.52 472
10.54 444
10.56 425
10.58 393
10.6 417
10.62 428
10.64 424
10.66 460
10.68 416
10.7 420
10.72 442
10.74 410
10.76 380
10.78 406
10.8 437
10.82 458
10.84 426
10.86 449
10.88 409
10.9 413
10.92 396
10.94 388
10.96 417
10.98 409
11 406
11.02 401
11.04 390
11.06 438
11.08 397
11.1 434
11.12 435
11.14 426
11.16 456
11.18 424
11.2 393
11.22 411
11.24 407
11.26 427
11.28 443
11.3 409
11.32 445
11.34 420
11.36 424
11.38 464
11.4 412
11.42 394
11.44 401
11.46 406
11.48 421
11.5 412
11.52 406
11.54 409
11.56 420
11.58 410
11.6 417
11.62 398
11.64 428
11.66 368
11.68 386
11.7 434
11.72 411
11.74 367
11.76 429
11.78 363
11.8 401
11.82 381
11.84 387
11.86 379
11.88 370
11.9 406
11.92 380
11.94 399
11.96 411
11.98 418
12 394
12.02 389
12.04 400
12.06 372
12.08 402
12.1 393
12.12 383
12.14 405
12.16 435
12.18 397
12.2 402
12.22 405
12.24 413
12.26 401
12.28 401
12.3 372
12.32 414
12.34 412
12.36 396
12.38 388
12.4 413
12.42 394
12.44 396
12.46 392
12.48 445
12.5 450
12.52 425
12.54 450
12.56 449
12.58 451
12.6 505
12.62 466
12.64 506
12.66 479
12.68 485
12.7 520
12.72 525
12.74 561
12.76 521
12.78 532
12.8 529
12.82 522
12.84 527
12.86 478
12.88 473
12.9 446
12.92 475
12.94 432
12.96 393
12.98 455
13 424
13.02 448
13.04 440
13.06 451
13.08 420
13.1 467
13.12 442
13.14 414
13.16 420
13.18 424
13.2 444
13.22 459
13.24 441
13.26 476
13.28 497
13.3 512
13.32 495
13.34 489
13.36 505
13.38 563
13.4 563
13.42 565
13.44 586
13.46 505
13.48 525
13.5 505
13.52 509
13.54 475
13.56 520
13.58 539
13.6 544
13.62 533
13.64 497
13.66 513
13.68 462
13.7 433
13.72 418
13.74 437
13.76 419
13.78 428
13.8 439
13.82 448
13.84 404
13.86 413
13.88 405
13.9 376
13.92 438
13.94 434
13.96 411
13.98 423
14 435
14.02 423
14.04 381
14.06 382
14.08 374
14.1 390
14.12 426
14.14 406
14.16 386
14.18 416
14.2 406
14.22 437
14.24 418
14.26 427
14.28 407
14.3 435
14.32 416
14.34 404
14.36 422
14.38 401
14.4 405
14.42 450
14.44 416
14.46 424
14.48 417
14.5 402
14.52 444
14.54 438
14.56 437
14.58 409
14.6 446
14.62 474
14.64 402
14.66 427
14.68 426
14.7 437
14.72 435
14.74 401
14.76 413
14.78 435
14.8 412
14.82 425
14.84 435
14.86 409
14.88 430
14.9 401
14.92 386
14.94 447
14.96 419
14.98 420
15 453
15.02 413
15.04 452
15.06 432
15.08 456
15.1 428
15.12 453
15.14 479
15.16 438
15.18 448
15.2 430
15.22 414
15.24 476
15.26 456
15.28 425
15.3 426
15.32 444
15.34 455
15.36 437
15.38 475
15.4 436
15.42 452
15.44 435
15.46 410
15.48 442
15.5 447
15.52 474
15.54 410
15.56 422
15.58 422
15.6 445
15.62 459
15.64 439
15.66 450
15.68 411
15.7 442
15.72 467
15.74 497
15.76 433
15.78 450
15.8 477
15.82 484
15.84 454
15.86 444
15.88 457
15.9 443
15.92 431
15.94 462
15.96 483
15.98 452
16 459
16.02 465
16.04 446
16.06 501
16.08 446
16.1 460
16.12 432
16.14 482
16.16 469
16.18 472
16.2 487
16.22 478
16.24 478
16.26 494
16.28 485
16.3 448
16.32 445
16.34 450
16.36 458
16.38 452
16.4 503
16.42 476
16.44 451
16.46 488
16.48 503
16.5 465
16.52 493
16.54 472
16.56 462
16.58 490
16.6 498
16.62 478
16.64 504
16.66 503
16.68 480
16.7 463
16.72 505
16.74 487
16.76 530
16.78 562
16.8 526
16.82 520
16.84 528
16.86 610
16.88 551
16.9 548
16.92 599
16.94 673
16.96 680
16.98 686
17 707
17.02 696
17.04 652
17.06 582
17.08 592
17.1 566
17.12 585
17.14 622
17.16 612
17.18 627
17.2 607
17.22 587
17.24 594
17.26 621
17.28 546
17.3 502
17.32 550
17.34 566
17.36 500
17.38 531
17.4 540
17.42 520
17.44 507
17.46 517
17.48 491
17.5 515
17.52 547
17.54 488
17.56 572
17.58 553
17.6 541
17.62 576
17.64 557
17.66 540
17.68 535
17.7 541
17.72 516
17.74 538
17.76 554
17.78 573
17.8 553
17.82 561
17.84 544
17.86 555
17.88 562
17.9 564
17.92 574
17.94 581
17.96 587
17.98 556
18 597
18.02 571
18.04 567
18.06 590
18.08 595
18.1 578
18.12 592
18.14 608
18.16 595
18.18 560
18.2 597
18.22 594
18.24 558
18.26 602
18.28 566
18.3 570
18.32 610
18.34 583
18.36 593
18.38 574
18.4 558
18.42 585
18.44 601
18.46 623
18.48 624
18.5 639
18.52 630
18.54 615
18.56 597
18.58 622
18.6 562
18.62 613
18.64 627
18.66 619
18.68 644
18.7 625
18.72 577
18.74 593
18.76 596
18.78 600
18.8 589
18.82 637
18.84 566
18.86 577
18.88 585
18.9 586
18.92 636
18.94 646
18.96 596
18.98 605
19 638
19.02 611
19.04 607
19.06 620
19.08 600
19.1 602
19.12 583
19.14 609
19.16 649
19.18 596
19.2 599
19.22 605
19.24 599
19.26 628
19.28 660
19.3 632
19.32 585
19.34 600
19.36 594
19.38 644
19.4 623
19.42 615
19.44 598
19.46 614
19.48 650
19.5 699
19.52 646
19.54 638
19.56 649
19.58 648
19.6 618
19.62 646
19.64 641
19.66 679
19.68 676
19.7 672
19.72 650
19.74 636
19.76 655
19.78 678
19.8 696
19.82 672
19.84 753
19.86 720
19.88 707
19.9 747
19.92 753
19.94 790
19.96 798
19.98 808
20 833