File: xrd-UiO-67/pxrddata/75-24.ASC
3 1326
3.02 1316
3.04 1237
3.06 1213
3.08 1225
3.1 1218
3.12 1216
3.14 1187
3.16 1121
3.18 1148
3.2 1113
3.22 1096
3.24 1091
3.26 1083
3.28 1105
3.3 1112
3.32 1053
3.34 1080
3.36 1039
3.38 1022
3.4 1074
3.42 1029
3.44 1013
3.46 1021
3.48 1013
3.5 1017
3.52 881
3.54 947
3.56 990
3.58 976
3.6 972
3.62 936
3.64 961
3.66 899
3.68 949
3.7 890
3.72 929
3.74 912
3.76 892
3.78 888
3.8 897
3.82 907
3.84 888
3.86 849
3.88 912
3.9 825
3.92 851
3.94 879
3.96 841
3.98 856
4 846
4.02 751
4.04 809
4.06 831
4.08 834
4.1 836
4.12 802
4.14 825
4.16 778
4.18 777
4.2 808
4.22 794
4.24 786
4.26 797
4.28 758
4.3 763
4.32 799
4.34 786
4.36 795
4.38 807
4.4 813
4.42 795
4.44 773
4.46 798
4.48 822
4.5 751
4.52 722
4.54 746
4.56 765
4.58 775
4.6 813
4.62 751
4.64 771
4.66 754
4.68 766
4.7 750
4.72 750
4.74 760
4.76 750
4.78 762
4.8 766
4.82 752
4.84 801
4.86 731
4.88 765
4.9 832
4.92 749
4.94 757
4.96 729
4.98 799
5 804
5.02 840
5.04 832
5.06 772
5.08 792
5.1 807
5.12 856
5.14 820
5.16 841
5.18 864
5.2 906
5.22 963
5.24 933
5.26 959
5.28 981
5.3 969
5.32 947
5.34 984
5.36 1062
5.38 1089
5.4 1085
5.42 1119
5.44 1161
5.46 1193
5.48 1201
5.5 1287
5.52 1344
5.54 1494
5.56 1455
5.58 1563
5.6 1675
5.62 1700
5.64 1844
5.66 2013
5.68 2176
5.7 2417
5.72 2764
5.74 3187
5.76 3735
5.78 3717
5.8 3149
5.82 2203
5.84 1439
5.86 1131
5.88 941
5.9 959
5.92 887
5.94 849
5.96 861
5.98 829
6 837
6.02 823
6.04 888
6.06 887
6.08 891
6.1 834
6.12 884
6.14 940
6.16 915
6.18 865
6.2 807
6.22 912
6.24 811
6.26 888
6.28 850
6.3 904
6.32 921
6.34 1021
6.36 957
6.38 969
6.4 979
6.42 1029
6.44 1040
6.46 1123
6.48 1189
6.5 1221
6.52 1339
6.54 1432
6.56 1495
6.58 1613
6.6 1764
6.62 2049
6.64 2245
6.66 2289
6.68 2001
6.7 1407
6.72 1042
6.74 880
6.76 856
6.78 810
6.8 780
6.82 744
6.84 744
6.86 736
6.88 693
6.9 736
6.92 700
6.94 661
6.96 728
6.98 713
7 704
7.02 696
7.04 722
7.06 712
7.08 695
7.1 687
7.12 695
7.14 680
7.16 668
7.18 651
7.2 701
7.22 711
7.24 646
7.26 667
7.28 688
7.3 694
7.32 709
7.34 681
7.36 688
7.38 655
7.4 675
7.42 681
7.44 687
7.46 651
7.48 704
7.5 660
7.52 613
7.54 671
7.56 703
7.58 646
7.6 689
7.62 659
7.64 655
7.66 646
7.68 683
7.7 632
7.72 656
7.74 659
7.76 615
7.78 640
7.8 670
7.82 651
7.84 624
7.86 658
7.88 694
7.9 634
7.92 693
7.94 652
7.96 629
7.98 661
8 635
8.02 628
8.04 669
8.06 622
8.08 707
8.1 671
8.12 705
8.14 650
8.16 669
8.18 664
8.2 644
8.22 714
8.24 660
8.26 681
8.28 674
8.3 672
8.32 671
8.34 665
8.36 675
8.38 665
8.4 664
8.42 650
8.44 635
8.46 654
8.48 670
8.5 651
8.52 674
8.54 674
8.56 628
8.58 704
8.6 664
8.62 689
8.64 679
8.66 683
8.68 647
8.7 665
8.72 664
8.74 685
8.76 664
8.78 656
8.8 651
8.82 677
8.84 698
8.86 702
8.88 681
8.9 725
8.92 695
8.94 709
8.96 694
8.98 698
9 687
9.02 729
9.04 807
9.06 740
9.08 812
9.1 809
9.12 834
9.14 856
9.16 854
9.18 871
9.2 955
9.22 967
9.24 1029
9.26 1036
9.28 1175
9.3 1349
9.32 1445
9.34 1655
9.36 1787
9.38 1979
9.4 1738
9.42 1473
9.44 1067
9.46 884
9.48 825
9.5 756
9.52 763
9.54 686
9.56 743
9.58 718
9.6 729
9.62 672
9.64 688
9.66 705
9.68 700
9.7 660
9.72 701
9.74 705
9.76 643
9.78 657
9.8 684
9.82 678
9.84 675
9.86 673
9.88 656
9.9 700
9.92 690
9.94 686
9.96 720
9.98 709
10 662
10.02 706
10.04 659
10.06 694
10.08 685
10.1 694
10.12 660
10.14 660
10.16 697
10.18 679
10.2 703
10.22 678
10.24 650
10.26 667
10.28 656
10.3 678
10.32 720
10.34 707
10.36 701
10.38 694
10.4 726
10.42 744
10.44 762
10.46 695
10.48 676
10.5 715
10.52 744
10.54 694
10.56 748
10.58 717
10.6 717
10.62 735
10.64 816
10.66 794
10.68 807
10.7 776
10.72 804
10.74 888
10.76 856
10.78 952
10.8 938
10.82 955
10.84 1027
10.86 1052
10.88 1098
10.9 1191
10.92 1295
10.94 1532
10.96 1651
10.98 1871
11 1850
11.02 1570
11.04 1256
11.06 1037
11.08 883
11.1 786
11.12 829
11.14 808
11.16 757
11.18 789
11.2 755
11.22 806
11.24 796
11.26 797
11.28 804
11.3 805
11.32 898
11.34 871
11.36 903
11.38 1023
11.4 989
11.42 1089
11.44 1135
11.46 1247
11.48 1221
11.5 1151
11.52 1073
11.54 921
11.56 844
11.58 792
11.6 757
11.62 733
11.64 761
11.66 754
11.68 760
11.7 713
11.72 739
11.74 744
11.76 698
11.78 702
11.8 671
11.82 732
11.84 747
11.86 713
11.88 737
11.9 739
11.92 720
11.94 720
11.96 725
11.98 698
12 729
12.02 736
12.04 742
12.06 762
12.08 749
12.1 757
12.12 758
12.14 707
12.16 683
12.18 744
12.2 782
12.22 749
12.24 767
12.26 760
12.28 728
12.3 740
12.32 730
12.34 727
12.36 752
12.38 779
12.4 767
12.42 720
12.44 739
12.46 735
12.48 705
12.5 741
12.52 758
12.54 679
12.56 745
12.58 689
12.6 777
12.62 764
12.64 729
12.66 771
12.68 755
12.7 740
12.72 768
12.74 755
12.76 758
12.78 762
12.8 820
12.82 780
12.84 760
12.86 759
12.88 787
12.9 769
12.92 777
12.94 807
12.96 789
12.98 767
13 758
13.02 759
13.04 789
13.06 787
13.08 765
13.1 800
13.12 824
13.14 828
13.16 879
13.18 866
13.2 889
13.22 1033
13.24 980
13.26 969
13.28 910
13.3 876
13.32 886
13.34 805
13.36 778
13.38 788
13.4 816
13.42 785
13.44 796
13.46 804
13.48 793
13.5 772
13.52 789
13.54 793
13.56 823
13.58 790
13.6 798
13.62 830
13.64 779
13.66 786
13.68 814
13.7 757
13.72 816
13.74 796
13.76 855
13.78 885
13.8 801
13.82 847
13.84 791
13.86 773
13.88 800
13.9 792
13.92 857
13.94 872
13.96 864
13.98 861
14 878
14.02 796
14.04 896
14.06 865
14.08 887
14.1 831
14.12 887
14.14 903
14.16 881
14.18 864
14.2 880
14.22 814
14.24 865
14.26 916
14.28 891
14.3 907
14.32 942
14.34 929
14.36 948
14.38 985
14.4 1067
14.42 1059
14.44 1086
14.46 1054
14.48 1006
14.5 983
14.52 871
14.54 866
14.56 869
14.58 907
14.6 918
14.62 943
14.64 961
14.66 855
14.68 888
14.7 917
14.72 902
14.74 961
14.76 884
14.78 996
14.8 952
14.82 967
14.84 896
14.86 964
14.88 942
14.9 949
14.92 935
14.94 974
14.96 943
14.98 930
15 929
15.02 907
15.04 942
15.06 971
15.08 946
15.1 1004
15.12 964
15.14 963
15.16 989
15.18 1004
15.2 975
15.22 997
15.24 998
15.26 987
15.28 989
15.3 953
15.32 1022
15.34 985
15.36 1032
15.38 1024
15.4 1021
15.42 1018
15.44 1006
15.46 1022
15.48 1043
15.5 980
15.52 962
15.54 1012
15.56 1000
15.58 1110
15.6 1034
15.62 1044
15.64 1040
15.66 1025
15.68 1029
15.7 1055
15.72 1030
15.74 1040
15.76 1038
15.78 1032
15.8 1014
15.82 1051
15.84 1013
15.86 1046
15.88 1123
15.9 1090
15.92 1120
15.94 1060
15.96 1086
15.98 1127
16 1136
16.02 1084
16.04 1111
16.06 1087
16.08 1086
16.1 1111
16.12 1114
16.14 1130
16.16 1147
16.18 1137
16.2 1151
16.22 1144
16.24 1134
16.26 1119
16.28 1103
16.3 1152
16.32 1203
16.34 1107
16.36 1183
16.38 1191
16.4 1242
16.42 1147
16.44 1161
16.46 1213
16.48 1149
16.5 1200
16.52 1198
16.54 1132
16.56 1321
16.58 1213
16.6 1194
16.62 1192
16.64 1222
16.66 1183
16.68 1204
16.7 1241
16.72 1281
16.74 1230
16.76 1256
16.78 1257
16.8 1198
16.82 1243
16.84 1215
16.86 1281
16.88 1343
16.9 1250
16.92 1304
16.94 1264
16.96 1272
16.98 1279
17 1286
17.02 1326
17.04 1284
17.06 1302
17.08 1347
17.1 1315
17.12 1377
17.14 1420
17.16 1430
17.18 1562
17.2 1488
17.22 1485
17.24 1515
17.26 1506
17.28 1460
17.3 1410
17.32 1423
17.34 1367
17.36 1281
17.38 1393
17.4 1332
17.42 1352
17.44 1391
17.46 1412
17.48 1391
17.5 1354
17.52 1393
17.54 1367
17.56 1420
17.58 1440
17.6 1429
17.62 1463
17.64 1484
17.66 1326
17.68 1466
17.7 1453
17.72 1434
17.74 1459
17.76 1451
17.78 1525
17.8 1519
17.82 1451
17.84 1416
17.86 1532
17.88 1527
17.9 1548
17.92 1473
17.94 1542
17.96 1482
17.98 1569
18 1511
18.02 1393
18.04 1492
18.06 1494
18.08 1497
18.1 1507
18.12 1474
18.14 1548
18.16 1523
18.18 1545
18.2 1546
18.22 1617
18.24 1545
18.26 1585
18.28 1550
18.3 1512
18.32 1621
18.34 1638
18.36 1627
18.38 1630
18.4 1609
18.42 1600
18.44 1614
18.46 1558
18.48 1556
18.5 1610
18.52 1570
18.54 1693
18.56 1628
18.58 1687
18.6 1640
18.62 1662
18.64 1551
18.66 1647
18.68 1618
18.7 1722
18.72 1610
18.74 1668
18.76 1658
18.78 1619
18.8 1540
18.82 1699
18.84 1662
18.86 1676
18.88 1668
18.9 1660
18.92 1696
18.94 1747
18.96 1678
18.98 1675
19 1707
19.02 1693
19.04 1666
19.06 1790
19.08 1727
19.1 1802
19.12 1725
19.14 1726
19.16 1734
19.18 1725
19.2 1721
19.22 1681
19.24 1753
19.26 1770
19.28 1789
19.3 1744
19.32 1713
19.34 1768
19.36 1766
19.38 1790
19.4 1809
19.42 1823
19.44 1884
19.46 1971
19.48 1921
19.5 2004
19.52 2029
19.54 2087
19.56 2276
19.58 2360
19.6 2369
19.62 2407
19.64 2330
19.66 2194
19.68 2068
19.7 2010
19.72 2011
19.74 1976
19.76 2047
19.78 2143
19.8 2164
19.82 2329
19.84 2431
19.86 2582
19.88 2593
19.9 2567
19.92 2430
19.94 2353
19.96 2185
19.98 1964
20 1915