File: xrd-UiO-67/pxrddata/76-8.ASC
3 1319
3.02 1307
3.04 1283
3.06 1308
3.08 1258
3.1 1208
3.12 1245
3.14 1213
3.16 1130
3.18 1166
3.2 1106
3.22 1178
3.24 1046
3.26 1108
3.28 1081
3.3 1064
3.32 1091
3.34 1012
3.36 1048
3.38 1049
3.4 1027
3.42 1017
3.44 1004
3.46 1013
3.48 979
3.5 963
3.52 969
3.54 952
3.56 913
3.58 903
3.6 908
3.62 886
3.64 948
3.66 917
3.68 892
3.7 896
3.72 880
3.74 881
3.76 887
3.78 851
3.8 841
3.82 814
3.84 817
3.86 835
3.88 796
3.9 803
3.92 850
3.94 830
3.96 814
3.98 794
4 743
4.02 830
4.04 773
4.06 770
4.08 720
4.1 709
4.12 767
4.14 753
4.16 733
4.18 739
4.2 713
4.22 713
4.24 767
4.26 716
4.28 724
4.3 703
4.32 655
4.34 697
4.36 707
4.38 717
4.4 720
4.42 705
4.44 671
4.46 690
4.48 726
4.5 651
4.52 707
4.54 635
4.56 718
4.58 701
4.6 679
4.62 683
4.64 687
4.66 748
4.68 690
4.7 715
4.72 746
4.74 688
4.76 704
4.78 708
4.8 685
4.82 675
4.84 696
4.86 681
4.88 681
4.9 758
4.92 733
4.94 759
4.96 716
4.98 704
5 810
5.02 733
5.04 776
5.06 825
5.08 850
5.1 817
5.12 860
5.14 882
5.16 889
5.18 974
5.2 960
5.22 983
5.24 971
5.26 1035
5.28 1039
5.3 1108
5.32 1040
5.34 1054
5.36 1212
5.38 1261
5.4 1284
5.42 1382
5.44 1464
5.46 1507
5.48 1616
5.5 1745
5.52 1884
5.54 2177
5.56 2368
5.58 2570
5.6 2805
5.62 3040
5.64 3316
5.66 3738
5.68 4262
5.7 5023
5.72 6777
5.74 8897
5.76 9841
5.78 8160
5.8 5160
5.82 2393
5.84 1243
5.86 996
5.88 973
5.9 941
5.92 886
5.94 867
5.96 822
5.98 847
6 798
6.02 780
6.04 778
6.06 810
6.08 831
6.1 772
6.12 810
6.14 846
6.16 842
6.18 863
6.2 900
6.22 830
6.24 916
6.26 987
6.28 969
6.3 1018
6.32 1019
6.34 1140
6.36 1136
6.38 1195
6.4 1365
6.42 1321
6.44 1395
6.46 1474
6.48 1588
6.5 1830
6.52 1905
6.54 2018
6.56 2272
6.58 2675
6.6 3251
6.62 3996
6.64 4325
6.66 3800
6.68 2392
6.7 1399
6.72 874
6.74 725
6.76 735
6.78 715
6.8 717
6.82 669
6.84 658
6.86 628
6.88 642
6.9 624
6.92 666
6.94 642
6.96 618
6.98 612
7 616
7.02 624
7.04 600
7.06 594
7.08 599
7.1 608
7.12 601
7.14 602
7.16 588
7.18 613
7.2 584
7.22 562
7.24 604
7.26 571
7.28 601
7.3 596
7.32 552
7.34 585
7.36 539
7.38 594
7.4 556
7.42 553
7.44 582
7.46 586
7.48 623
7.5 554
7.52 574
7.54 581
7.56 603
7.58 605
7.6 569
7.62 607
7.64 598
7.66 587
7.68 546
7.7 582
7.72 582
7.74 544
7.76 571
7.78 578
7.8 636
7.82 600
7.84 568
7.86 534
7.88 556
7.9 574
7.92 600
7.94 576
7.96 551
7.98 549
8 593
8.02 582
8.04 567
8.06 613
8.08 591
8.1 601
8.12 559
8.14 602
8.16 602
8.18 623
8.2 587
8.22 529
8.24 545
8.26 544
8.28 569
8.3 559
8.32 559
8.34 587
8.36 544
8.38 551
8.4 580
8.42 611
8.44 640
8.46 592
8.48 574
8.5 578
8.52 585
8.54 607
8.56 565
8.58 587
8.6 579
8.62 599
8.64 608
8.66 588
8.68 580
8.7 609
8.72 610
8.74 617
8.76 628
8.78 619
8.8 611
8.82 599
8.84 604
8.86 651
8.88 618
8.9 630
8.92 655
8.94 628
8.96 689
8.98 701
9 687
9.02 712
9.04 752
9.06 834
9.08 829
9.1 887
9.12 879
9.14 943
9.16 1012
9.18 1090
9.2 1165
9.22 1221
9.24 1363
9.26 1467
9.28 1768
9.3 2041
9.32 2396
9.34 3010
9.36 3636
9.38 3409
9.4 2654
9.42 1674
9.44 941
9.46 750
9.48 651
9.5 676
9.52 623
9.54 605
9.56 604
9.58 617
9.6 623
9.62 627
9.64 571
9.66 607
9.68 652
9.7 629
9.72 594
9.74 614
9.76 570
9.78 553
9.8 586
9.82 626
9.84 598
9.86 608
9.88 607
9.9 591
9.92 594
9.94 591
9.96 583
9.98 531
10 576
10.02 563
10.04 606
10.06 597
10.08 576
10.1 559
10.12 584
10.14 572
10.16 553
10.18 615
10.2 611
10.22 559
10.24 572
10.26 566
10.28 588
10.3 568
10.32 589
10.34 574
10.36 620
10.38 616
10.4 603
10.42 608
10.44 588
10.46 613
10.48 614
10.5 577
10.52 602
10.54 641
10.56 684
10.58 654
10.6 663
10.62 690
10.64 716
10.66 755
10.68 768
10.7 779
10.72 787
10.74 850
10.76 922
10.78 987
10.8 1071
10.82 1087
10.84 1238
10.86 1276
10.88 1498
10.9 1656
10.92 2070
10.94 2561
10.96 3174
10.98 3296
11 2773
11.02 1969
11.04 1356
11.06 838
11.08 741
11.1 699
11.12 668
11.14 751
11.16 714
11.18 695
11.2 705
11.22 723
11.24 764
11.26 791
11.28 792
11.3 835
11.32 901
11.34 929
11.36 1078
11.38 1128
11.4 1309
11.42 1517
11.44 1880
11.46 2287
11.48 2107
11.5 1671
11.52 1183
11.54 863
11.56 684
11.58 636
11.6 633
11.62 572
11.64 593
11.66 596
11.68 680
11.7 582
11.72 587
11.74 619
11.76 623
11.78 604
11.8 624
11.82 618
11.84 613
11.86 633
11.88 621
11.9 611
11.92 630
11.94 579
11.96 629
11.98 581
12 608
12.02 590
12.04 620
12.06 591
12.08 593
12.1 570
12.12 565
12.14 629
12.16 580
12.18 563
12.2 609
12.22 585
12.24 615
12.26 615
12.28 635
12.3 573
12.32 615
12.34 579
12.36 603
12.38 576
12.4 578
12.42 632
12.44 652
12.46 580
12.48 622
12.5 583
12.52 600
12.54 590
12.56 636
12.58 586
12.6 576
12.62 592
12.64 596
12.66 588
12.68 620
12.7 576
12.72 626
12.74 682
12.76 582
12.78 620
12.8 580
12.82 605
12.84 636
12.86 623
12.88 632
12.9 618
12.92 632
12.94 646
12.96 686
12.98 676
13 689
13.02 692
13.04 699
13.06 638
13.08 682
13.1 725
13.12 747
13.14 795
13.16 834
13.18 831
13.2 941
13.22 1046
13.24 1104
13.26 1021
13.28 936
13.3 811
13.32 693
13.34 650
13.36 637
13.38 625
13.4 659
13.42 598
13.44 631
13.46 612
13.48 607
13.5 625
13.52 620
13.54 657
13.56 653
13.58 659
13.6 601
13.62 656
13.64 642
13.66 672
13.68 660
13.7 650
13.72 602
13.74 632
13.76 627
13.78 624
13.8 617
13.82 636
13.84 659
13.86 635
13.88 611
13.9 600
13.92 597
13.94 621
13.96 669
13.98 650
14 636
14.02 687
14.04 650
14.06 667
14.08 656
14.1 709
14.12 646
14.14 678
14.16 718
14.18 705
14.2 667
14.22 682
14.24 718
14.26 745
14.28 710
14.3 769
14.32 815
14.34 825
14.36 876
14.38 913
14.4 1072
14.42 1094
14.44 1033
14.46 948
14.48 916
14.5 779
14.52 730
14.54 687
14.56 726
14.58 690
14.6 628
14.62 664
14.64 695
14.66 742
14.68 709
14.7 738
14.72 700
14.74 766
14.76 741
14.78 810
14.8 785
14.82 791
14.84 741
14.86 741
14.88 705
14.9 699
14.92 721
14.94 678
14.96 684
14.98 671
15 709
15.02 727
15.04 700
15.06 732
15.08 679
15.1 674
15.12 712
15.14 730
15.16 733
15.18 748
15.2 690
15.22 686
15.24 737
15.26 730
15.28 737
15.3 737
15.32 736
15.34 744
15.36 756
15.38 791
15.4 768
15.42 758
15.44 727
15.46 751
15.48 749
15.5 756
15.52 817
15.54 760
15.56 751
15.58 775
15.6 743
15.62 767
15.64 785
15.66 742
15.68 751
15.7 739
15.72 757
15.74 784
15.76 778
15.78 770
15.8 738
15.82 807
15.84 759
15.86 780
15.88 765
15.9 804
15.92 787
15.94 794
15.96 805
15.98 798
16 768
16.02 727
16.04 765
16.06 850
16.08 771
16.1 794
16.12 819
16.14 777
16.16 836
16.18 797
16.2 812
16.22 857
16.24 838
16.26 817
16.28 835
16.3 843
16.32 824
16.34 809
16.36 806
16.38 844
16.4 825
16.42 811
16.44 799
16.46 833
16.48 855
16.5 852
16.52 814
16.54 866
16.56 833
16.58 849
16.6 862
16.62 827
16.64 904
16.66 887
16.68 896
16.7 900
16.72 994
16.74 976
16.76 991
16.78 988
16.8 1030
16.82 1028
16.84 1115
16.86 1149
16.88 1253
16.9 1276
16.92 1455
16.94 1615
16.96 1855
16.98 1960
17 1907
17.02 1861
17.04 1555
17.06 1375
17.08 1230
17.1 1082
17.12 1110
17.14 1171
17.16 1218
17.18 1402
17.2 1425
17.22 1337
17.24 1192
17.26 1177
17.28 1029
17.3 932
17.32 995
17.34 973
17.36 1003
17.38 976
17.4 982
17.42 941
17.44 974
17.46 994
17.48 958
17.5 930
17.52 951
17.54 944
17.56 1007
17.58 920
17.6 1013
17.62 991
17.64 986
17.66 953
17.68 1007
17.7 1037
17.72 1036
17.74 991
17.76 971
17.78 988
17.8 1024
17.82 994
17.84 1026
17.86 1040
17.88 1063
17.9 1039
17.92 998
17.94 1049
17.96 1054
17.98 1059
18 1087
18.02 1082
18.04 1055
18.06 1035
18.08 1072
18.1 1081
18.12 1089
18.14 1077
18.16 1003
18.18 1017
18.2 1035
18.22 1052
18.24 1072
18.26 1086
18.28 1040
18.3 1078
18.32 1090
18.34 1109
18.36 1037
18.38 1097
18.4 1023
18.42 1113
18.44 1065
18.46 1049
18.48 1105
18.5 1038
18.52 1062
18.54 1115
18.56 1065
18.58 1161
18.6 1061
18.62 1114
18.64 1136
18.66 1132
18.68 1138
18.7 1114
18.72 1112
18.74 1096
18.76 1159
18.78 1171
18.8 1166
18.82 1138
18.84 1139
18.86 1201
18.88 1167
18.9 1166
18.92 1159
18.94 1162
18.96 1191
18.98 1137
19 1158
19.02 1243
19.04 1141
19.06 1128
19.08 1129
19.1 1181
19.12 1182
19.14 1155
19.16 1233
19.18 1249
19.2 1171
19.22 1189
19.24 1223
19.26 1214
19.28 1197
19.3 1243
19.32 1133
19.34 1212
19.36 1266
19.38 1284
19.4 1335
19.42 1393
19.44 1312
19.46 1405
19.48 1504
19.5 1536
19.52 1539
19.54 1827
19.56 2009
19.58 2406
19.6 2416
19.62 2400
19.64 2135
19.66 1953
19.68 1688
19.7 1606
19.72 1532
19.74 1583
19.76 1673
19.78 1717
19.8 1980
19.82 2162
19.84 2482
19.86 2976
19.88 3141
19.9 2958
19.92 2566
19.94 2083
19.96 1662
19.98 1535
20 1326