File: xrd-UiO-67/pxrddata/77-1.ASC
3 824
3.02 804
3.04 764
3.06 754
3.08 775
3.1 792
3.12 749
3.14 826
3.16 756
3.18 733
3.2 771
3.22 743
3.24 717
3.26 689
3.28 708
3.3 713
3.32 709
3.34 730
3.36 709
3.38 699
3.4 729
3.42 694
3.44 710
3.46 679
3.48 665
3.5 658
3.52 656
3.54 661
3.56 620
3.58 601
3.6 632
3.62 599
3.64 611
3.66 629
3.68 640
3.7 624
3.72 592
3.74 646
3.76 656
3.78 595
3.8 598
3.82 595
3.84 595
3.86 616
3.88 568
3.9 621
3.92 576
3.94 593
3.96 610
3.98 614
4 566
4.02 603
4.04 544
4.06 575
4.08 586
4.1 582
4.12 579
4.14 546
4.16 576
4.18 564
4.2 582
4.22 542
4.24 544
4.26 546
4.28 551
4.3 534
4.32 532
4.34 545
4.36 498
4.38 459
4.4 507
4.42 525
4.44 484
4.46 545
4.48 488
4.5 463
4.52 472
4.54 464
4.56 480
4.58 447
4.6 501
4.62 471
4.64 443
4.66 459
4.68 480
4.7 488
4.72 472
4.74 438
4.76 461
4.78 472
4.8 467
4.82 475
4.84 475
4.86 420
4.88 471
4.9 453
4.92 415
4.94 432
4.96 404
4.98 466
5 475
5.02 459
5.04 457
5.06 466
5.08 447
5.1 495
5.12 468
5.14 447
5.16 467
5.18 493
5.2 509
5.22 470
5.24 501
5.26 490
5.28 491
5.3 508
5.32 530
5.34 526
5.36 503
5.38 552
5.4 501
5.42 540
5.44 539
5.46 554
5.48 618
5.5 590
5.52 625
5.54 687
5.56 674
5.58 640
5.6 608
5.62 694
5.64 772
5.66 771
5.68 829
5.7 912
5.72 985
5.74 1009
5.76 1024
5.78 1107
5.8 1235
5.82 1376
5.84 1460
5.86 1552
5.88 1554
5.9 1407
5.92 912
5.94 654
5.96 602
5.98 554
6 523
6.02 510
6.04 493
6.06 479
6.08 477
6.1 498
6.12 483
6.14 470
6.16 459
6.18 470
6.2 470
6.22 513
6.24 470
6.26 486
6.28 518
6.3 492
6.32 491
6.34 495
6.36 504
6.38 504
6.4 508
6.42 527
6.44 511
6.46 543
6.48 540
6.5 551
6.52 560
6.54 579
6.56 630
6.58 645
6.6 685
6.62 651
6.64 730
6.66 750
6.68 795
6.7 867
6.72 923
6.74 1049
6.76 1067
6.78 904
6.8 645
6.82 500
6.84 525
6.86 484
6.88 477
6.9 464
6.92 449
6.94 460
6.96 429
6.98 439
7 433
7.02 434
7.04 406
7.06 435
7.08 450
7.1 428
7.12 433
7.14 420
7.16 427
7.18 415
7.2 437
7.22 385
7.24 447
7.26 430
7.28 425
7.3 429
7.32 392
7.34 404
7.36 413
7.38 447
7.4 444
7.42 438
7.44 455
7.46 457
7.48 443
7.5 403
7.52 453
7.54 430
7.56 411
7.58 450
7.6 424
7.62 416
7.64 410
7.66 443
7.68 430
7.7 400
7.72 439
7.74 440
7.76 429
7.78 386
7.8 430
7.82 429
7.84 399
7.86 403
7.88 432
7.9 399
7.92 399
7.94 407
7.96 415
7.98 417
8 428
8.02 455
8.04 441
8.06 417
8.08 421
8.1 413
8.12 398
8.14 404
8.16 396
8.18 385
8.2 404
8.22 443
8.24 397
8.26 433
8.28 392
8.3 408
8.32 407
8.34 406
8.36 395
8.38 422
8.4 416
8.42 411
8.44 409
8.46 427
8.48 407
8.5 383
8.52 417
8.54 446
8.56 413
8.58 399
8.6 404
8.62 457
8.64 428
8.66 427
8.68 428
8.7 402
8.72 416
8.74 402
8.76 386
8.78 361
8.8 377
8.82 410
8.84 430
8.86 390
8.88 429
8.9 408
8.92 451
8.94 408
8.96 402
8.98 413
9 450
9.02 406
9.04 430
9.06 393
9.08 477
9.1 431
9.12 439
9.14 443
9.16 459
9.18 425
9.2 434
9.22 471
9.24 471
9.26 477
9.28 530
9.3 531
9.32 545
9.34 568
9.36 583
9.38 552
9.4 707
9.42 676
9.44 720
9.46 795
9.48 786
9.5 812
9.52 677
9.54 528
9.56 428
9.58 413
9.6 413
9.62 438
9.64 393
9.66 405
9.68 413
9.7 370
9.72 387
9.74 401
9.76 400
9.78 438
9.8 444
9.82 379
9.84 402
9.86 435
9.88 395
9.9 412
9.92 405
9.94 412
9.96 424
9.98 424
10 404
10.02 427
10.04 381
10.06 442
10.08 398
10.1 419
10.12 380
10.14 409
10.16 411
10.18 408
10.2 455
10.22 421
10.24 435
10.26 396
10.28 410
10.3 383
10.32 422
10.34 424
10.36 437
10.38 416
10.4 420
10.42 429
10.44 410
10.46 411
10.48 401
10.5 416
10.52 431
10.54 392
10.56 421
10.58 414
10.6 389
10.62 421
10.64 381
10.66 378
10.68 434
10.7 422
10.72 432
10.74 433
10.76 442
10.78 418
10.8 445
10.82 462
10.84 440
10.86 483
10.88 480
10.9 518
10.92 516
10.94 560
10.96 530
10.98 575
11 602
11.02 615
11.04 664
11.06 662
11.08 694
11.1 723
11.12 719
11.14 612
11.16 481
11.18 418
11.2 447
11.22 430
11.24 443
11.26 438
11.28 467
11.3 464
11.32 442
11.34 433
11.36 428
11.38 466
11.4 456
11.42 443
11.44 459
11.46 490
11.48 462
11.5 532
11.52 529
11.54 521
11.56 498
11.58 584
11.6 579
11.62 552
11.64 457
11.66 461
11.68 432
11.7 384
11.72 416
11.74 399
11.76 392
11.78 400
11.8 433
11.82 380
11.84 408
11.86 409
11.88 407
11.9 397
11.92 375
11.94 410
11.96 405
11.98 409
12 445
12.02 440
12.04 400
12.06 380
12.08 407
12.1 421
12.12 421
12.14 451
12.16 412
12.18 430
12.2 428
12.22 438
12.24 424
12.26 415
12.28 465
12.3 426
12.32 399
12.34 443
12.36 411
12.38 420
12.4 438
12.42 410
12.44 398
12.46 418
12.48 440
12.5 413
12.52 475
12.54 488
12.56 440
12.58 450
12.6 396
12.62 425
12.64 413
12.66 438
12.68 464
12.7 422
12.72 410
12.74 414
12.76 419
12.78 426
12.8 430
12.82 423
12.84 421
12.86 373
12.88 413
12.9 414
12.92 413
12.94 404
12.96 406
12.98 429
13 444
13.02 459
13.04 436
13.06 457
13.08 480
13.1 455
13.12 474
13.14 483
13.16 495
13.18 466
13.2 446
13.22 487
13.24 459
13.26 472
13.28 451
13.3 506
13.32 476
13.34 523
13.36 478
13.38 464
13.4 470
13.42 489
13.44 457
13.46 496
13.48 455
13.5 476
13.52 460
13.54 494
13.56 470
13.58 440
13.6 411
13.62 466
13.64 464
13.66 483
13.68 503
13.7 485
13.72 453
13.74 493
13.76 502
13.78 430
13.8 478
13.82 492
13.84 491
13.86 475
13.88 464
13.9 464
13.92 459
13.94 470
13.96 462
13.98 490
14 471
14.02 478
14.04 466
14.06 522
14.08 502
14.1 497
14.12 488
14.14 466
14.16 489
14.18 516
14.2 515
14.22 491
14.24 490
14.26 523
14.28 488
14.3 516
14.32 543
14.34 532
14.36 507
14.38 532
14.4 519
14.42 514
14.44 538
14.46 527
14.48 494
14.5 566
14.52 551
14.54 535
14.56 551
14.58 510
14.6 540
14.62 497
14.64 504
14.66 538
14.68 549
14.7 538
14.72 514
14.74 539
14.76 527
14.78 554
14.8 531
14.82 529
14.84 554
14.86 526
14.88 538
14.9 560
14.92 539
14.94 555
14.96 532
14.98 555
15 578
15.02 525
15.04 573
15.06 520
15.08 535
15.1 533
15.12 537
15.14 581
15.16 562
15.18 558
15.2 560
15.22 605
15.24 563
15.26 549
15.28 552
15.3 565
15.32 601
15.34 569
15.36 538
15.38 551
15.4 579
15.42 598
15.44 540
15.46 548
15.48 606
15.5 619
15.52 599
15.54 561
15.56 578
15.58 608
15.6 584
15.62 596
15.64 612
15.66 563
15.68 540
15.7 594
15.72 625
15.74 609
15.76 595
15.78 638
15.8 600
15.82 619
15.84 621
15.86 664
15.88 641
15.9 662
15.92 597
15.94 639
15.96 609
15.98 633
16 589
16.02 644
16.04 650
16.06 617
16.08 664
16.1 653
16.12 641
16.14 609
16.16 661
16.18 697
16.2 658
16.22 650
16.24 674
16.26 678
16.28 642
16.3 600
16.32 681
16.34 685
16.36 665
16.38 655
16.4 677
16.42 658
16.44 658
16.46 662
16.48 691
16.5 673
16.52 698
16.54 696
16.56 730
16.58 662
16.6 733
16.62 703
16.64 697
16.66 676
16.68 656
16.7 721
16.72 746
16.74 739
16.76 699
16.78 706
16.8 741
16.82 706
16.84 689
16.86 749
16.88 761
16.9 743
16.92 792
16.94 767
16.96 738
16.98 752
17 766
17.02 734
17.04 756
17.06 773
17.08 747
17.1 773
17.12 873
17.14 802
17.16 818
17.18 837
17.2 781
17.22 769
17.24 790
17.26 810
17.28 818
17.3 800
17.32 816
17.34 829
17.36 793
17.38 822
17.4 842
17.42 816
17.44 823
17.46 877
17.48 855
17.5 848
17.52 783
17.54 818
17.56 860
17.58 840
17.6 878
17.62 825
17.64 818
17.66 926
17.68 829
17.7 814
17.72 817
17.74 842
17.76 837
17.78 873
17.8 909
17.82 881
17.84 872
17.86 907
17.88 869
17.9 905
17.92 891
17.94 903
17.96 843
17.98 928
18 879
18.02 975
18.04 914
18.06 925
18.08 922
18.1 941
18.12 919
18.14 898
18.16 910
18.18 914
18.2 895
18.22 933
18.24 926
18.26 935
18.28 942
18.3 960
18.32 994
18.34 953
18.36 1012
18.38 1004
18.4 962
18.42 993
18.44 972
18.46 978
18.48 984
18.5 1006
18.52 995
18.54 1003
18.56 915
18.58 921
18.6 959
18.62 1009
18.64 987
18.66 984
18.68 1004
18.7 1017
18.72 1012
18.74 1012
18.76 1047
18.78 1055
18.8 1109
18.82 1018
18.84 1054
18.86 1080
18.88 1061
18.9 1071
18.92 995
18.94 1104
18.96 1084
18.98 1069
19 1078
19.02 1058
19.04 1104
19.06 1198
19.08 1161
19.1 1051
19.12 1061
19.14 1169
19.16 1134
19.18 1054
19.2 1124
19.22 1106
19.24 1130
19.26 1134
19.28 1114
19.3 1135
19.32 1166
19.34 1156
19.36 1102
19.38 1123
19.4 1203
19.42 1172
19.44 1234
19.46 1129
19.48 1176
19.5 1153
19.52 1171
19.54 1224
19.56 1149
19.58 1229
19.6 1216
19.62 1224
19.64 1234
19.66 1257
19.68 1276
19.7 1313
19.72 1300
19.74 1299
19.76 1333
19.78 1314
19.8 1296
19.82 1307
19.84 1264
19.86 1275
19.88 1301
19.9 1303
19.92 1328
19.94 1371
19.96 1375
19.98 1377
20 1349