File: xrd-UiO-67/pxrddata/77-5.ASC
3 1066
3.02 1067
3.04 1030
3.06 1048
3.08 937
3.1 1011
3.12 966
3.14 951
3.16 936
3.18 946
3.2 891
3.22 908
3.24 896
3.26 895
3.28 900
3.3 955
3.32 922
3.34 863
3.36 858
3.38 883
3.4 816
3.42 877
3.44 800
3.46 814
3.48 799
3.5 808
3.52 811
3.54 794
3.56 763
3.58 788
3.6 769
3.62 761
3.64 787
3.66 803
3.68 784
3.7 723
3.72 780
3.74 717
3.76 735
3.78 750
3.8 716
3.82 673
3.84 706
3.86 708
3.88 715
3.9 701
3.92 699
3.94 757
3.96 693
3.98 690
4 678
4.02 678
4.04 712
4.06 649
4.08 657
4.1 682
4.12 647
4.14 624
4.16 625
4.18 673
4.2 669
4.22 615
4.24 585
4.26 580
4.28 629
4.3 623
4.32 618
4.34 602
4.36 593
4.38 649
4.4 595
4.42 592
4.44 622
4.46 581
4.48 612
4.5 603
4.52 579
4.54 625
4.56 615
4.58 607
4.6 608
4.62 603
4.64 613
4.66 621
4.68 618
4.7 643
4.72 601
4.74 601
4.76 635
4.78 614
4.8 617
4.82 618
4.84 648
4.86 610
4.88 621
4.9 707
4.92 687
4.94 636
4.96 667
4.98 645
5 637
5.02 674
5.04 677
5.06 672
5.08 712
5.1 763
5.12 767
5.14 771
5.16 818
5.18 804
5.2 801
5.22 850
5.24 849
5.26 874
5.28 879
5.3 985
5.32 949
5.34 1030
5.36 1055
5.38 1127
5.4 1192
5.42 1238
5.44 1282
5.46 1336
5.48 1442
5.5 1500
5.52 1617
5.54 1722
5.56 1808
5.58 2008
5.6 2176
5.62 2218
5.64 2441
5.66 2612
5.68 3048
5.7 3409
5.72 4142
5.74 5090
5.76 6492
5.78 6601
5.8 4184
5.82 2020
5.84 1078
5.86 985
5.88 877
5.9 872
5.92 780
5.94 767
5.96 756
5.98 703
6 684
6.02 749
6.04 746
6.06 722
6.08 697
6.1 724
6.12 735
6.14 691
6.16 716
6.18 792
6.2 780
6.22 781
6.24 787
6.26 861
6.28 876
6.3 850
6.32 902
6.34 958
6.36 1009
6.38 1074
6.4 1101
6.42 1150
6.44 1284
6.46 1249
6.48 1360
6.5 1426
6.52 1588
6.54 1706
6.56 1945
6.58 2132
6.6 2465
6.62 3144
6.64 3895
6.66 3940
6.68 2656
6.7 1407
6.72 837
6.74 702
6.76 688
6.78 610
6.8 621
6.82 605
6.84 614
6.86 549
6.88 552
6.9 589
6.92 577
6.94 587
6.96 576
6.98 577
7 552
7.02 546
7.04 564
7.06 558
7.08 559
7.1 565
7.12 561
7.14 518
7.16 545
7.18 544
7.2 558
7.22 533
7.24 518
7.26 527
7.28 530
7.3 580
7.32 548
7.34 507
7.36 576
7.38 533
7.4 530
7.42 539
7.44 556
7.46 576
7.48 514
7.5 512
7.52 549
7.54 521
7.56 511
7.58 534
7.6 535
7.62 532
7.64 529
7.66 536
7.68 529
7.7 549
7.72 498
7.74 540
7.76 540
7.78 562
7.8 502
7.82 506
7.84 519
7.86 491
7.88 513
7.9 525
7.92 524
7.94 548
7.96 544
7.98 519
8 518
8.02 532
8.04 521
8.06 498
8.08 547
8.1 537
8.12 515
8.14 529
8.16 511
8.18 547
8.2 551
8.22 536
8.24 550
8.26 566
8.28 525
8.3 561
8.32 532
8.34 483
8.36 486
8.38 525
8.4 507
8.42 548
8.44 519
8.46 560
8.48 569
8.5 564
8.52 539
8.54 533
8.56 550
8.58 538
8.6 561
8.62 513
8.64 516
8.66 517
8.68 536
8.7 539
8.72 566
8.74 501
8.76 525
8.78 542
8.8 592
8.82 482
8.84 569
8.86 562
8.88 605
8.9 631
8.92 600
8.94 599
8.96 608
8.98 634
9 658
9.02 630
9.04 705
9.06 704
9.08 702
9.1 709
9.12 762
9.14 803
9.16 890
9.18 859
9.2 978
9.22 977
9.24 1070
9.26 1204
9.28 1315
9.3 1517
9.32 1786
9.34 2141
9.36 2588
9.38 2852
9.4 2481
9.42 1455
9.44 831
9.46 694
9.48 598
9.5 593
9.52 622
9.54 596
9.56 608
9.58 575
9.6 565
9.62 531
9.64 526
9.66 589
9.68 585
9.7 568
9.72 581
9.74 561
9.76 579
9.78 550
9.8 549
9.82 552
9.84 577
9.86 578
9.88 534
9.9 572
9.92 574
9.94 560
9.96 526
9.98 532
10 576
10.02 558
10.04 548
10.06 546
10.08 521
10.1 565
10.12 574
10.14 553
10.16 572
10.18 538
10.2 572
10.22 576
10.24 621
10.26 586
10.28 610
10.3 567
10.32 595
10.34 595
10.36 590
10.38 560
10.4 603
10.42 593
10.44 641
10.46 600
10.48 609
10.5 579
10.52 589
10.54 645
10.56 606
10.58 620
10.6 632
10.62 630
10.64 634
10.66 701
10.68 722
10.7 734
10.72 786
10.74 761
10.76 784
10.78 902
10.8 920
10.82 921
10.84 995
10.86 1107
10.88 1290
10.9 1301
10.92 1528
10.94 1830
10.96 2172
10.98 2686
11 2718
11.02 2010
11.04 1304
11.06 827
11.08 766
11.1 670
11.12 686
11.14 744
11.16 665
11.18 691
11.2 681
11.22 690
11.24 744
11.26 735
11.28 716
11.3 783
11.32 764
11.34 854
11.36 864
11.38 931
11.4 1016
11.42 1148
11.44 1373
11.46 1540
11.48 1731
11.5 1413
11.52 1020
11.54 817
11.56 717
11.58 621
11.6 635
11.62 675
11.64 575
11.66 645
11.68 633
11.7 542
11.72 608
11.74 647
11.76 624
11.78 602
11.8 626
11.82 620
11.84 644
11.86 586
11.88 614
11.9 594
11.92 659
11.94 593
11.96 625
11.98 604
12 622
12.02 585
12.04 609
12.06 609
12.08 616
12.1 628
12.12 619
12.14 601
12.16 602
12.18 587
12.2 633
12.22 584
12.24 636
12.26 611
12.28 650
12.3 662
12.32 655
12.34 621
12.36 618
12.38 633
12.4 629
12.42 644
12.44 613
12.46 619
12.48 615
12.5 641
12.52 562
12.54 625
12.56 580
12.58 629
12.6 691
12.62 664
12.64 599
12.66 635
12.68 645
12.7 660
12.72 668
12.74 644
12.76 678
12.78 622
12.8 691
12.82 687
12.84 675
12.86 647
12.88 651
12.9 674
12.92 654
12.94 605
12.96 673
12.98 699
13 728
13.02 664
13.04 712
13.06 700
13.08 718
13.1 713
13.12 761
13.14 817
13.16 761
13.18 822
13.2 878
13.22 993
13.24 960
13.26 1003
13.28 895
13.3 768
13.32 665
13.34 730
13.36 741
13.38 704
13.4 657
13.42 709
13.44 692
13.46 659
13.48 713
13.5 713
13.52 701
13.54 665
13.56 637
13.58 718
13.6 694
13.62 694
13.64 713
13.66 725
13.68 723
13.7 696
13.72 680
13.74 667
13.76 699
13.78 680
13.8 726
13.82 728
13.84 697
13.86 698
13.88 684
13.9 733
13.92 742
13.94 741
13.96 740
13.98 772
14 752
14.02 694
14.04 701
14.06 694
14.08 707
14.1 714
14.12 748
14.14 702
14.16 803
14.18 755
14.2 768
14.22 817
14.24 760
14.26 759
14.28 812
14.3 827
14.32 824
14.34 797
14.36 816
14.38 850
14.4 918
14.42 1002
14.44 1067
14.46 1017
14.48 895
14.5 804
14.52 785
14.54 828
14.56 766
14.58 808
14.6 792
14.62 777
14.64 830
14.66 802
14.68 807
14.7 809
14.72 772
14.74 816
14.76 829
14.78 860
14.8 869
14.82 856
14.84 856
14.86 838
14.88 810
14.9 792
14.92 778
14.94 804
14.96 847
14.98 790
15 802
15.02 806
15.04 818
15.06 791
15.08 826
15.1 837
15.12 821
15.14 811
15.16 815
15.18 839
15.2 892
15.22 837
15.24 834
15.26 790
15.28 822
15.3 850
15.32 838
15.34 819
15.36 867
15.38 849
15.4 863
15.42 879
15.44 883
15.46 841
15.48 841
15.5 865
15.52 865
15.54 862
15.56 854
15.58 888
15.6 927
15.62 898
15.64 846
15.66 866
15.68 852
15.7 836
15.72 891
15.74 858
15.76 887
15.78 912
15.8 930
15.82 889
15.84 857
15.86 886
15.88 842
15.9 848
15.92 900
15.94 909
15.96 914
15.98 867
16 970
16.02 845
16.04 905
16.06 949
16.08 956
16.1 915
16.12 953
16.14 934
16.16 916
16.18 915
16.2 915
16.22 950
16.24 959
16.26 947
16.28 933
16.3 948
16.32 970
16.34 1030
16.36 918
16.38 972
16.4 1037
16.42 1000
16.44 999
16.46 934
16.48 1002
16.5 1039
16.52 1011
16.54 1051
16.56 977
16.58 998
16.6 1028
16.62 1001
16.64 999
16.66 1040
16.68 1031
16.7 1003
16.72 963
16.74 1039
16.76 1038
16.78 1045
16.8 1023
16.82 1034
16.84 1066
16.86 1080
16.88 1044
16.9 1039
16.92 1069
16.94 1116
16.96 1066
16.98 1081
17 1095
17.02 1147
17.04 1174
17.06 1105
17.08 1090
17.1 1159
17.12 1162
17.14 1223
17.16 1215
17.18 1286
17.2 1370
17.22 1412
17.24 1285
17.26 1275
17.28 1165
17.3 1097
17.32 1106
17.34 1195
17.36 1188
17.38 1179
17.4 1112
17.42 1137
17.44 1150
17.46 1166
17.48 1130
17.5 1189
17.52 1217
17.54 1185
17.56 1184
17.58 1198
17.6 1230
17.62 1194
17.64 1145
17.66 1129
17.68 1153
17.7 1210
17.72 1191
17.74 1210
17.76 1212
17.78 1300
17.8 1162
17.82 1210
17.84 1187
17.86 1238
17.88 1230
17.9 1240
17.92 1212
17.94 1231
17.96 1294
17.98 1234
18 1204
18.02 1233
18.04 1229
18.06 1398
18.08 1260
18.1 1249
18.12 1253
18.14 1269
18.16 1281
18.18 1273
18.2 1219
18.22 1277
18.24 1285
18.26 1238
18.28 1310
18.3 1236
18.32 1257
18.34 1284
18.36 1323
18.38 1301
18.4 1346
18.42 1292
18.44 1353
18.46 1322
18.48 1352
18.5 1303
18.52 1302
18.54 1365
18.56 1344
18.58 1298
18.6 1335
18.62 1339
18.64 1330
18.66 1323
18.68 1357
18.7 1320
18.72 1357
18.74 1347
18.76 1330
18.78 1392
18.8 1420
18.82 1294
18.84 1330
18.86 1364
18.88 1392
18.9 1375
18.92 1406
18.94 1421
18.96 1394
18.98 1359
19 1408
19.02 1385
19.04 1408
19.06 1464
19.08 1414
19.1 1356
19.12 1423
19.14 1420
19.16 1406
19.18 1414
19.2 1468
19.22 1417
19.24 1409
19.26 1454
19.28 1493
19.3 1483
19.32 1478
19.34 1436
19.36 1481
19.38 1493
19.4 1528
19.42 1593
19.44 1538
19.46 1632
19.48 1670
19.5 1692
19.52 1798
19.54 1850
19.56 1900
19.58 2236
19.6 2158
19.62 2247
19.64 1978
19.66 1845
19.68 1761
19.7 1618
19.72 1641
19.74 1702
19.76 1728
19.78 1770
19.8 1847
19.82 2005
19.84 2154
19.86 2431
19.88 2550
19.9 2501
19.92 2251
19.94 1971
19.96 1673
19.98 1642
20 1527