File: xrd-UiO-67/pxrddata/77-6.ASC
3 973
3.02 1066
3.04 1004
3.06 989
3.08 984
3.1 924
3.12 941
3.14 963
3.16 914
3.18 901
3.2 884
3.22 956
3.24 920
3.26 873
3.28 897
3.3 882
3.32 902
3.34 811
3.36 842
3.38 845
3.4 862
3.42 899
3.44 830
3.46 846
3.48 808
3.5 841
3.52 849
3.54 831
3.56 821
3.58 829
3.6 792
3.62 820
3.64 811
3.66 791
3.68 764
3.7 767
3.72 775
3.74 780
3.76 774
3.78 748
3.8 806
3.82 766
3.84 775
3.86 731
3.88 761
3.9 744
3.92 789
3.94 741
3.96 758
3.98 731
4 772
4.02 721
4.04 716
4.06 770
4.08 774
4.1 766
4.12 675
4.14 808
4.16 773
4.18 748
4.2 679
4.22 727
4.24 744
4.26 714
4.28 733
4.3 751
4.32 732
4.34 734
4.36 706
4.38 691
4.4 697
4.42 741
4.44 720
4.46 749
4.48 742
4.5 713
4.52 724
4.54 728
4.56 734
4.58 723
4.6 723
4.62 716
4.64 752
4.66 746
4.68 726
4.7 741
4.72 730
4.74 745
4.76 718
4.78 711
4.8 746
4.82 682
4.84 737
4.86 757
4.88 750
4.9 744
4.92 781
4.94 738
4.96 740
4.98 738
5 737
5.02 733
5.04 756
5.06 765
5.08 791
5.1 778
5.12 826
5.14 779
5.16 835
5.18 788
5.2 839
5.22 847
5.24 887
5.26 864
5.28 875
5.3 895
5.32 843
5.34 867
5.36 904
5.38 928
5.4 912
5.42 894
5.44 961
5.46 963
5.48 1011
5.5 1058
5.52 1103
5.54 1141
5.56 1205
5.58 1208
5.6 1208
5.62 1338
5.64 1420
5.66 1504
5.68 1583
5.7 1736
5.72 1905
5.74 1878
5.76 2032
5.78 2024
5.8 1862
5.82 1767
5.84 1611
5.86 1389
5.88 1234
5.9 1057
5.92 894
5.94 846
5.96 824
5.98 828
6 787
6.02 720
6.04 749
6.06 718
6.08 747
6.1 758
6.12 732
6.14 739
6.16 691
6.18 739
6.2 761
6.22 689
6.24 703
6.26 745
6.28 732
6.3 738
6.32 771
6.34 770
6.36 791
6.38 810
6.4 794
6.42 799
6.44 850
6.46 890
6.48 899
6.5 916
6.52 966
6.54 997
6.56 1019
6.58 1092
6.6 1184
6.62 1165
6.64 1241
6.66 1251
6.68 1213
6.7 1112
6.72 1056
6.74 981
6.76 887
6.78 827
6.8 722
6.82 682
6.84 726
6.86 594
6.88 606
6.9 593
6.92 599
6.94 599
6.96 565
6.98 609
7 554
7.02 583
7.04 627
7.06 595
7.08 649
7.1 616
7.12 579
7.14 587
7.16 585
7.18 587
7.2 551
7.22 555
7.24 588
7.26 594
7.28 611
7.3 572
7.32 564
7.34 543
7.36 579
7.38 593
7.4 593
7.42 584
7.44 559
7.46 566
7.48 620
7.5 582
7.52 602
7.54 586
7.56 559
7.58 549
7.6 572
7.62 551
7.64 549
7.66 558
7.68 573
7.7 587
7.72 587
7.74 544
7.76 605
7.78 529
7.8 587
7.82 527
7.84 610
7.86 551
7.88 585
7.9 560
7.92 568
7.94 585
7.96 554
7.98 493
8 558
8.02 537
8.04 545
8.06 540
8.08 552
8.1 538
8.12 569
8.14 534
8.16 557
8.18 570
8.2 554
8.22 539
8.24 570
8.26 548
8.28 559
8.3 529
8.32 560
8.34 534
8.36 556
8.38 564
8.4 561
8.42 563
8.44 548
8.46 544
8.48 549
8.5 568
8.52 566
8.54 589
8.56 549
8.58 545
8.6 538
8.62 566
8.64 564
8.66 575
8.68 539
8.7 544
8.72 530
8.74 554
8.76 505
8.78 516
8.8 557
8.82 583
8.84 536
8.86 541
8.88 572
8.9 592
8.92 598
8.94 605
8.96 603
8.98 540
9 544
9.02 594
9.04 605
9.06 576
9.08 690
9.1 658
9.12 590
9.14 637
9.16 667
9.18 661
9.2 660
9.22 699
9.24 724
9.26 771
9.28 821
9.3 905
9.32 891
9.34 994
9.36 1012
9.38 1101
9.4 1027
9.42 976
9.44 907
9.46 852
9.48 763
9.5 720
9.52 630
9.54 612
9.56 613
9.58 579
9.6 592
9.62 555
9.64 574
9.66 608
9.68 534
9.7 569
9.72 579
9.74 557
9.76 575
9.78 552
9.8 529
9.82 555
9.84 521
9.86 564
9.88 561
9.9 572
9.92 548
9.94 580
9.96 550
9.98 595
10 579
10.02 562
10.04 579
10.06 588
10.08 553
10.1 557
10.12 553
10.14 592
10.16 567
10.18 542
10.2 562
10.22 598
10.24 578
10.26 571
10.28 577
10.3 564
10.32 596
10.34 568
10.36 535
10.38 529
10.4 600
10.42 580
10.44 514
10.46 595
10.48 555
10.5 557
10.52 553
10.54 606
10.56 559
10.58 576
10.6 603
10.62 616
10.64 582
10.66 575
10.68 598
10.7 630
10.72 622
10.74 617
10.76 629
10.78 673
10.8 645
10.82 717
10.84 759
10.86 762
10.88 812
10.9 847
10.92 914
10.94 939
10.96 948
10.98 1049
11 1006
11.02 959
11.04 933
11.06 826
11.08 786
11.1 736
11.12 716
11.14 671
11.16 611
11.18 612
11.2 626
11.22 583
11.24 627
11.26 588
11.28 640
11.3 627
11.32 653
11.34 664
11.36 680
11.38 704
11.4 730
11.42 750
11.44 785
11.46 807
11.48 817
11.5 794
11.52 743
11.54 726
11.56 743
11.58 672
11.6 646
11.62 620
11.64 589
11.66 588
11.68 581
11.7 635
11.72 590
11.74 536
11.76 571
11.78 562
11.8 558
11.82 591
11.84 580
11.86 597
11.88 564
11.9 589
11.92 574
11.94 580
11.96 544
11.98 581
12 571
12.02 544
12.04 579
12.06 563
12.08 585
12.1 611
12.12 600
12.14 603
12.16 572
12.18 570
12.2 559
12.22 589
12.24 579
12.26 570
12.28 617
12.3 617
12.32 613
12.34 580
12.36 554
12.38 550
12.4 555
12.42 561
12.44 588
12.46 542
12.48 558
12.5 589
12.52 573
12.54 544
12.56 626
12.58 579
12.6 595
12.62 575
12.64 612
12.66 547
12.68 621
12.7 588
12.72 608
12.74 554
12.76 607
12.78 584
12.8 642
12.82 616
12.84 568
12.86 592
12.88 600
12.9 592
12.92 610
12.94 579
12.96 584
12.98 613
13 578
13.02 625
13.04 647
13.06 634
13.08 624
13.1 613
13.12 621
13.14 623
13.16 674
13.18 663
13.2 660
13.22 681
13.24 670
13.26 696
13.28 722
13.3 626
13.32 625
13.34 645
13.36 629
13.38 613
13.4 637
13.42 651
13.44 609
13.46 620
13.48 649
13.5 639
13.52 664
13.54 635
13.56 665
13.58 645
13.6 621
13.62 623
13.64 625
13.66 561
13.68 614
13.7 698
13.72 633
13.74 617
13.76 620
13.78 617
13.8 633
13.82 666
13.84 666
13.86 659
13.88 655
13.9 668
13.92 602
13.94 662
13.96 632
13.98 612
14 682
14.02 642
14.04 663
14.06 689
14.08 660
14.1 644
14.12 687
14.14 677
14.16 644
14.18 654
14.2 685
14.22 681
14.24 685
14.26 703
14.28 672
14.3 698
14.32 717
14.34 752
14.36 708
14.38 726
14.4 734
14.42 762
14.44 754
14.46 770
14.48 743
14.5 717
14.52 722
14.54 713
14.56 724
14.58 691
14.6 749
14.62 656
14.64 760
14.66 691
14.68 733
14.7 689
14.72 707
14.74 710
14.76 704
14.78 742
14.8 685
14.82 707
14.84 764
14.86 746
14.88 780
14.9 731
14.92 751
14.94 733
14.96 727
14.98 722
15 728
15.02 729
15.04 746
15.06 734
15.08 738
15.1 759
15.12 727
15.14 798
15.16 763
15.18 807
15.2 798
15.22 797
15.24 795
15.26 736
15.28 761
15.3 767
15.32 764
15.34 725
15.36 777
15.38 739
15.4 793
15.42 823
15.44 800
15.46 805
15.48 752
15.5 765
15.52 831
15.54 821
15.56 811
15.58 817
15.6 752
15.62 728
15.64 772
15.66 794
15.68 802
15.7 826
15.72 832
15.74 834
15.76 861
15.78 785
15.8 851
15.82 790
15.84 812
15.86 869
15.88 800
15.9 876
15.92 828
15.94 831
15.96 853
15.98 854
16 890
16.02 832
16.04 827
16.06 852
16.08 834
16.1 819
16.12 861
16.14 796
16.16 857
16.18 862
16.2 870
16.22 872
16.24 886
16.26 937
16.28 920
16.3 889
16.32 890
16.34 919
16.36 886
16.38 928
16.4 917
16.42 908
16.44 973
16.46 915
16.48 980
16.5 954
16.52 937
16.54 895
16.56 943
16.58 908
16.6 950
16.62 930
16.64 912
16.66 934
16.68 1024
16.7 912
16.72 890
16.74 941
16.76 965
16.78 952
16.8 987
16.82 949
16.84 987
16.86 972
16.88 910
16.9 979
16.92 986
16.94 955
16.96 1000
16.98 1020
17 1042
17.02 1004
17.04 980
17.06 950
17.08 1034
17.1 1085
17.12 1023
17.14 1129
17.16 1093
17.18 1099
17.2 1077
17.22 1098
17.24 1081
17.26 1117
17.28 1145
17.3 1138
17.32 1050
17.34 1102
17.36 1080
17.38 1060
17.4 1034
17.42 1078
17.44 1080
17.46 1104
17.48 1119
17.5 1045
17.52 1068
17.54 1102
17.56 1058
17.58 1066
17.6 1070
17.62 1159
17.64 1095
17.66 1119
17.68 1100
17.7 1144
17.72 1074
17.74 1143
17.76 1161
17.78 1106
17.8 1138
17.82 1144
17.84 1205
17.86 1149
17.88 1192
17.9 1178
17.92 1160
17.94 1110
17.96 1168
17.98 1109
18 1219
18.02 1152
18.04 1118
18.06 1121
18.08 1215
18.1 1212
18.12 1219
18.14 1150
18.16 1241
18.18 1158
18.2 1154
18.22 1168
18.24 1160
18.26 1171
18.28 1168
18.3 1214
18.32 1187
18.34 1233
18.36 1212
18.38 1278
18.4 1196
18.42 1215
18.44 1231
18.46 1196
18.48 1210
18.5 1244
18.52 1206
18.54 1266
18.56 1290
18.58 1226
18.6 1228
18.62 1200
18.64 1326
18.66 1251
18.68 1290
18.7 1244
18.72 1241
18.74 1288
18.76 1300
18.78 1244
18.8 1268
18.82 1303
18.84 1305
18.86 1327
18.88 1299
18.9 1264
18.92 1238
18.94 1284
18.96 1277
18.98 1350
19 1301
19.02 1297
19.04 1244
19.06 1291
19.08 1286
19.1 1339
19.12 1351
19.14 1366
19.16 1351
19.18 1332
19.2 1296
19.22 1278
19.24 1434
19.26 1329
19.28 1314
19.3 1367
19.32 1413
19.34 1344
19.36 1400
19.38 1423
19.4 1367
19.42 1392
19.44 1399
19.46 1484
19.48 1409
19.5 1519
19.52 1554
19.54 1514
19.56 1589
19.58 1595
19.6 1655
19.62 1620
19.64 1594
19.66 1595
19.68 1505
19.7 1598
19.72 1552
19.74 1561
19.76 1535
19.78 1524
19.8 1615
19.82 1659
19.84 1644
19.86 1700
19.88 1746
19.9 1768
19.92 1777
19.94 1632
19.96 1638
19.98 1544
20 1533