File: xrd-UiO-67/pxrddata/78-15.ASC
3 1211
3.02 1188
3.04 1181
3.06 1201
3.08 1168
3.1 1176
3.12 1215
3.14 1117
3.16 1130
3.18 1145
3.2 1075
3.22 1105
3.24 1091
3.26 1081
3.28 1097
3.3 1061
3.32 1088
3.34 1043
3.36 1040
3.38 1059
3.4 1012
3.42 974
3.44 974
3.46 967
3.48 1030
3.5 1006
3.52 987
3.54 963
3.56 961
3.58 933
3.6 921
3.62 933
3.64 926
3.66 1020
3.68 917
3.7 928
3.72 903
3.74 865
3.76 922
3.78 883
3.8 834
3.82 901
3.84 885
3.86 849
3.88 827
3.9 852
3.92 805
3.94 876
3.96 910
3.98 789
4 830
4.02 771
4.04 778
4.06 788
4.08 800
4.1 789
4.12 791
4.14 837
4.16 797
4.18 772
4.2 783
4.22 851
4.24 818
4.26 837
4.28 813
4.3 752
4.32 757
4.34 781
4.36 767
4.38 738
4.4 770
4.42 747
4.44 733
4.46 714
4.48 773
4.5 724
4.52 748
4.54 769
4.56 762
4.58 730
4.6 751
4.62 695
4.64 722
4.66 696
4.68 724
4.7 703
4.72 729
4.74 759
4.76 704
4.78 752
4.8 727
4.82 734
4.84 732
4.86 671
4.88 756
4.9 744
4.92 742
4.94 770
4.96 718
4.98 748
5 705
5.02 696
5.04 739
5.06 809
5.08 738
5.1 809
5.12 777
5.14 731
5.16 814
5.18 797
5.2 795
5.22 808
5.24 796
5.26 786
5.28 828
5.3 850
5.32 902
5.34 854
5.36 868
5.38 913
5.4 899
5.42 955
5.44 948
5.46 1012
5.48 1019
5.5 1074
5.52 1177
5.54 1141
5.56 1220
5.58 1326
5.6 1411
5.62 1484
5.64 1594
5.66 1697
5.68 2030
5.7 2339
5.72 3019
5.74 3085
5.76 2281
5.78 1283
5.8 919
5.82 812
5.84 818
5.86 686
5.88 711
5.9 761
5.92 732
5.94 688
5.96 705
5.98 712
6 738
6.02 653
6.04 679
6.06 703
6.08 709
6.1 701
6.12 645
6.14 682
6.16 737
6.18 680
6.2 743
6.22 797
6.24 742
6.26 753
6.28 800
6.3 733
6.32 748
6.34 792
6.36 786
6.38 873
6.4 857
6.42 873
6.44 891
6.46 927
6.48 989
6.5 1001
6.52 1109
6.54 1199
6.56 1292
6.58 1539
6.6 1586
6.62 1742
6.64 1308
6.66 944
6.68 711
6.7 672
6.72 670
6.74 626
6.76 634
6.78 657
6.8 593
6.82 633
6.84 665
6.86 637
6.88 618
6.9 647
6.92 632
6.94 630
6.96 581
6.98 631
7 636
7.02 557
7.04 622
7.06 551
7.08 608
7.1 596
7.12 592
7.14 572
7.16 604
7.18 588
7.2 605
7.22 571
7.24 554
7.26 594
7.28 565
7.3 586
7.32 551
7.34 576
7.36 565
7.38 590
7.4 583
7.42 575
7.44 594
7.46 606
7.48 546
7.5 551
7.52 573
7.54 544
7.56 596
7.58 568
7.6 577
7.62 594
7.64 590
7.66 558
7.68 589
7.7 547
7.72 558
7.74 586
7.76 586
7.78 582
7.8 571
7.82 585
7.84 540
7.86 541
7.88 558
7.9 569
7.92 552
7.94 569
7.96 574
7.98 581
8 566
8.02 515
8.04 602
8.06 535
8.08 552
8.1 539
8.12 581
8.14 552
8.16 584
8.18 561
8.2 573
8.22 522
8.24 585
8.26 567
8.28 506
8.3 561
8.32 545
8.34 532
8.36 550
8.38 528
8.4 588
8.42 539
8.44 544
8.46 533
8.48 551
8.5 524
8.52 544
8.54 527
8.56 559
8.58 569
8.6 568
8.62 535
8.64 570
8.66 546
8.68 517
8.7 583
8.72 566
8.74 535
8.76 528
8.78 522
8.8 538
8.82 529
8.84 572
8.86 571
8.88 541
8.9 548
8.92 556
8.94 562
8.96 584
8.98 592
9 617
9.02 645
9.04 648
9.06 590
9.08 626
9.1 625
9.12 651
9.14 745
9.16 709
9.18 729
9.2 739
9.22 792
9.24 841
9.26 964
9.28 1067
9.3 1140
9.32 1140
9.34 1235
9.36 1118
9.38 875
9.4 666
9.42 606
9.44 533
9.46 574
9.48 567
9.5 564
9.52 562
9.54 553
9.56 543
9.58 570
9.6 563
9.62 524
9.64 525
9.66 550
9.68 543
9.7 537
9.72 515
9.74 492
9.76 549
9.78 549
9.8 544
9.82 524
9.84 520
9.86 513
9.88 537
9.9 507
9.92 516
9.94 551
9.96 482
9.98 468
10 508
10.02 513
10.04 522
10.06 523
10.08 522
10.1 508
10.12 520
10.14 541
10.16 514
10.18 553
10.2 488
10.22 489
10.24 480
10.26 555
10.28 563
10.3 543
10.32 520
10.34 551
10.36 511
10.38 509
10.4 552
10.42 540
10.44 549
10.46 514
10.48 523
10.5 531
10.52 578
10.54 504
10.56 538
10.58 517
10.6 551
10.62 587
10.64 549
10.66 634
10.68 581
10.7 571
10.72 632
10.74 659
10.76 626
10.78 704
10.8 739
10.82 762
10.84 834
10.86 875
10.88 1036
10.9 1106
10.92 1088
10.94 1098
10.96 1047
10.98 933
11 745
11.02 649
11.04 535
11.06 574
11.08 572
11.1 575
11.12 554
11.14 535
11.16 547
11.18 567
11.2 589
11.22 588
11.24 565
11.26 580
11.28 606
11.3 597
11.32 671
11.34 683
11.36 702
11.38 847
11.4 863
11.42 831
11.44 872
11.46 822
11.48 687
11.5 583
11.52 509
11.54 511
11.56 516
11.58 515
11.6 541
11.62 475
11.64 524
11.66 519
11.68 505
11.7 511
11.72 561
11.74 522
11.76 480
11.78 529
11.8 503
11.82 546
11.84 519
11.86 557
11.88 516
11.9 518
11.92 510
11.94 523
11.96 502
11.98 513
12 502
12.02 476
12.04 535
12.06 500
12.08 471
12.1 477
12.12 525
12.14 489
12.16 513
12.18 528
12.2 487
12.22 480
12.24 528
12.26 509
12.28 503
12.3 564
12.32 522
12.34 513
12.36 528
12.38 542
12.4 508
12.42 535
12.44 491
12.46 487
12.48 511
12.5 488
12.52 473
12.54 507
12.56 566
12.58 538
12.6 477
12.62 512
12.64 544
12.66 552
12.68 499
12.7 518
12.72 528
12.74 557
12.76 512
12.78 513
12.8 497
12.82 534
12.84 520
12.86 580
12.88 549
12.9 504
12.92 503
12.94 503
12.96 507
12.98 527
13 531
13.02 548
13.04 580
13.06 504
13.08 561
13.1 619
13.12 631
13.14 628
13.16 631
13.18 602
13.2 573
13.22 585
13.24 567
13.26 529
13.28 581
13.3 535
13.32 541
13.34 525
13.36 528
13.38 525
13.4 582
13.42 524
13.44 555
13.46 504
13.48 542
13.5 526
13.52 526
13.54 528
13.56 543
13.58 583
13.6 560
13.62 556
13.64 561
13.66 551
13.68 527
13.7 535
13.72 545
13.74 554
13.76 514
13.78 564
13.8 519
13.82 577
13.84 542
13.86 534
13.88 571
13.9 565
13.92 574
13.94 555
13.96 602
13.98 591
14 561
14.02 561
14.04 556
14.06 511
14.08 564
14.1 564
14.12 555
14.14 574
14.16 537
14.18 575
14.2 610
14.22 551
14.24 608
14.26 579
14.28 626
14.3 619
14.32 632
14.34 635
14.36 644
14.38 643
14.4 677
14.42 637
14.44 620
14.46 599
14.48 565
14.5 607
14.52 563
14.54 581
14.56 570
14.58 592
14.6 616
14.62 573
14.64 609
14.66 589
14.68 601
14.7 584
14.72 572
14.74 643
14.76 621
14.78 608
14.8 577
14.82 623
14.84 584
14.86 571
14.88 595
14.9 552
14.92 612
14.94 654
14.96 611
14.98 613
15 620
15.02 582
15.04 616
15.06 633
15.08 655
15.1 617
15.12 593
15.14 575
15.16 587
15.18 581
15.2 594
15.22 613
15.24 610
15.26 598
15.28 620
15.3 600
15.32 610
15.34 632
15.36 617
15.38 610
15.4 627
15.42 637
15.44 636
15.46 663
15.48 676
15.5 638
15.52 644
15.54 657
15.56 655
15.58 641
15.6 668
15.62 653
15.64 638
15.66 640
15.68 680
15.7 658
15.72 670
15.74 624
15.76 670
15.78 634
15.8 640
15.82 642
15.84 693
15.86 677
15.88 640
15.9 646
15.92 690
15.94 649
15.96 659
15.98 654
16 629
16.02 663
16.04 665
16.06 666
16.08 625
16.1 670
16.12 663
16.14 734
16.16 678
16.18 673
16.2 659
16.22 658
16.24 654
16.26 681
16.28 713
16.3 712
16.32 695
16.34 663
16.36 729
16.38 707
16.4 712
16.42 725
16.44 735
16.46 706
16.48 734
16.5 659
16.52 711
16.54 689
16.56 762
16.58 748
16.6 729
16.62 732
16.64 773
16.66 742
16.68 707
16.7 756
16.72 724
16.74 705
16.76 749
16.78 726
16.8 705
16.82 756
16.84 708
16.86 717
16.88 733
16.9 782
16.92 742
16.94 804
16.96 760
16.98 814
17 774
17.02 715
17.04 772
17.06 844
17.08 823
17.1 874
17.12 825
17.14 837
17.16 875
17.18 859
17.2 814
17.22 817
17.24 776
17.26 803
17.28 813
17.3 808
17.32 761
17.34 815
17.36 796
17.38 758
17.4 772
17.42 802
17.44 802
17.46 812
17.48 821
17.5 790
17.52 819
17.54 794
17.56 783
17.58 790
17.6 850
17.62 814
17.64 815
17.66 821
17.68 800
17.7 871
17.72 829
17.74 853
17.76 817
17.78 837
17.8 824
17.82 813
17.84 812
17.86 814
17.88 836
17.9 842
17.92 815
17.94 873
17.96 839
17.98 847
18 804
18.02 871
18.04 862
18.06 837
18.08 784
18.1 840
18.12 816
18.14 812
18.16 896
18.18 887
18.2 863
18.22 917
18.24 801
18.26 869
18.28 865
18.3 853
18.32 826
18.34 842
18.36 839
18.38 895
18.4 922
18.42 865
18.44 880
18.46 885
18.48 852
18.5 848
18.52 907
18.54 868
18.56 900
18.58 894
18.6 901
18.62 901
18.64 893
18.66 874
18.68 891
18.7 904
18.72 887
18.74 928
18.76 894
18.78 897
18.8 896
18.82 914
18.84 938
18.86 910
18.88 927
18.9 961
18.92 915
18.94 909
18.96 926
18.98 928
19 955
19.02 940
19.04 940
19.06 896
19.08 920
19.1 902
19.12 923
19.14 972
19.16 910
19.18 946
19.2 933
19.22 1000
19.24 994
19.26 949
19.28 978
19.3 1003
19.32 960
19.34 985
19.36 973
19.38 992
19.4 1056
19.42 950
19.44 1066
19.46 1090
19.48 1168
19.5 1307
19.52 1353
19.54 1290
19.56 1245
19.58 1198
19.6 1126
19.62 1116
19.64 1083
19.66 1054
19.68 1060
19.7 1038
19.72 1164
19.74 1190
19.76 1325
19.78 1516
19.8 1482
19.82 1359
19.84 1404
19.86 1393
19.88 1185
19.9 1041
19.92 1032
19.94 1056
19.96 1004
19.98 1010
20 1014