File: xrd-UiO-67/pxrddata/78-13.ASC
3 986
3.02 960
3.04 825
3.06 768
3.08 734
3.1 651
3.12 677
3.14 602
3.16 629
3.18 577
3.2 582
3.22 581
3.24 542
3.26 567
3.28 548
3.3 567
3.32 528
3.34 565
3.36 513
3.38 490
3.4 494
3.42 535
3.44 541
3.46 468
3.48 475
3.5 473
3.52 507
3.54 493
3.56 482
3.58 471
3.6 456
3.62 467
3.64 464
3.66 470
3.68 470
3.7 446
3.72 472
3.74 468
3.76 416
3.78 397
3.8 410
3.82 396
3.84 453
3.86 436
3.88 447
3.9 420
3.92 392
3.94 432
3.96 452
3.98 386
4 421
4.02 425
4.04 420
4.06 412
4.08 388
4.1 437
4.12 444
4.14 437
4.16 413
4.18 427
4.2 416
4.22 420
4.24 404
4.26 396
4.28 379
4.3 406
4.32 356
4.34 391
4.36 403
4.38 378
4.4 404
4.42 440
4.44 373
4.46 393
4.48 426
4.5 401
4.52 404
4.54 448
4.56 399
4.58 410
4.6 379
4.62 416
4.64 399
4.66 450
4.68 404
4.7 404
4.72 388
4.74 417
4.76 378
4.78 368
4.8 419
4.82 379
4.84 399
4.86 392
4.88 420
4.9 364
4.92 396
4.94 416
4.96 406
4.98 427
5 394
5.02 395
5.04 410
5.06 412
5.08 397
5.1 411
5.12 413
5.14 442
5.16 417
5.18 411
5.2 407
5.22 412
5.24 392
5.26 398
5.28 416
5.3 453
5.32 402
5.34 413
5.36 421
5.38 393
5.4 396
5.42 389
5.44 347
5.46 377
5.48 401
5.5 418
5.52 395
5.54 368
5.56 373
5.58 393
5.6 444
5.62 433
5.64 377
5.66 374
5.68 396
5.7 406
5.72 389
5.74 395
5.76 430
5.78 438
5.8 386
5.82 404
5.84 384
5.86 405
5.88 372
5.9 389
5.92 397
5.94 373
5.96 392
5.98 395
6 440
6.02 393
6.04 409
6.06 400
6.08 368
6.1 398
6.12 403
6.14 368
6.16 414
6.18 411
6.2 392
6.22 379
6.24 388
6.26 418
6.28 402
6.3 392
6.32 381
6.34 345
6.36 372
6.38 362
6.4 418
6.42 410
6.44 397
6.46 360
6.48 332
6.5 390
6.52 424
6.54 381
6.56 384
6.58 360
6.6 391
6.62 410
6.64 396
6.66 385
6.68 376
6.7 414
6.72 380
6.74 419
6.76 403
6.78 398
6.8 394
6.82 365
6.84 360
6.86 397
6.88 396
6.9 387
6.92 408
6.94 398
6.96 424
6.98 396
7 376
7.02 400
7.04 393
7.06 390
7.08 389
7.1 383
7.12 374
7.14 381
7.16 390
7.18 384
7.2 368
7.22 388
7.24 371
7.26 351
7.28 376
7.3 412
7.32 394
7.34 418
7.36 394
7.38 400
7.4 402
7.42 414
7.44 380
7.46 377
7.48 385
7.5 355
7.52 399
7.54 420
7.56 364
7.58 392
7.6 395
7.62 411
7.64 383
7.66 398
7.68 380
7.7 390
7.72 357
7.74 430
7.76 407
7.78 366
7.8 371
7.82 383
7.84 404
7.86 361
7.88 384
7.9 415
7.92 379
7.94 402
7.96 379
7.98 358
8 434
8.02 398
8.04 402
8.06 391
8.08 414
8.1 387
8.12 380
8.14 385
8.16 383
8.18 401
8.2 386
8.22 374
8.24 367
8.26 381
8.28 382
8.3 367
8.32 395
8.34 395
8.36 382
8.38 381
8.4 373
8.42 427
8.44 365
8.46 379
8.48 385
8.5 389
8.52 408
8.54 394
8.56 397
8.58 369
8.6 394
8.62 397
8.64 407
8.66 409
8.68 426
8.7 384
8.72 387
8.74 378
8.76 391
8.78 400
8.8 382
8.82 387
8.84 380
8.86 398
8.88 390
8.9 395
8.92 429
8.94 399
8.96 402
8.98 411
9 372
9.02 405
9.04 392
9.06 370
9.08 392
9.1 405
9.12 413
9.14 370
9.16 397
9.18 370
9.2 392
9.22 384
9.24 420
9.26 361
9.28 401
9.3 415
9.32 411
9.34 410
9.36 463
9.38 417
9.4 396
9.42 380
9.44 381
9.46 394
9.48 417
9.5 402
9.52 419
9.54 394
9.56 413
9.58 396
9.6 413
9.62 407
9.64 384
9.66 434
9.68 415
9.7 378
9.72 374
9.74 397
9.76 446
9.78 383
9.8 416
9.82 439
9.84 403
9.86 412
9.88 406
9.9 414
9.92 377
9.94 412
9.96 392
9.98 408
10 404
10.02 359
10.04 431
10.06 420
10.08 375
10.1 404
10.12 443
10.14 411
10.16 402
10.18 405
10.2 372
10.22 414
10.24 387
10.26 421
10.28 404
10.3 413
10.32 383
10.34 385
10.36 419
10.38 412
10.4 402
10.42 427
10.44 401
10.46 405
10.48 376
10.5 392
10.52 425
10.54 432
10.56 437
10.58 435
10.6 388
10.62 421
10.64 412
10.66 414
10.68 419
10.7 421
10.72 390
10.74 414
10.76 442
10.78 404
10.8 431
10.82 364
10.84 422
10.86 414
10.88 406
10.9 401
10.92 411
10.94 425
10.96 420
10.98 382
11 398
11.02 427
11.04 407
11.06 407
11.08 414
11.1 420
11.12 425
11.14 405
11.16 378
11.18 413
11.2 415
11.22 422
11.24 429
11.26 399
11.28 370
11.3 407
11.32 393
11.34 400
11.36 427
11.38 415
11.4 393
11.42 429
11.44 421
11.46 397
11.48 401
11.5 391
11.52 422
11.54 420
11.56 420
11.58 419
11.6 441
11.62 422
11.64 407
11.66 432
11.68 408
11.7 444
11.72 437
11.74 449
11.76 434
11.78 384
11.8 446
11.82 402
11.84 417
11.86 426
11.88 453
11.9 416
11.92 398
11.94 407
11.96 396
11.98 388
12 436
12.02 396
12.04 395
12.06 426
12.08 419
12.1 404
12.12 404
12.14 426
12.16 437
12.18 434
12.2 426
12.22 424
12.24 420
12.26 438
12.28 459
12.3 406
12.32 380
12.34 441
12.36 442
12.38 430
12.4 429
12.42 444
12.44 430
12.46 431
12.48 457
12.5 437
12.52 417
12.54 436
12.56 452
12.58 434
12.6 422
12.62 435
12.64 436
12.66 437
12.68 415
12.7 409
12.72 421
12.74 419
12.76 404
12.78 408
12.8 463
12.82 445
12.84 427
12.86 481
12.88 438
12.9 439
12.92 432
12.94 426
12.96 438
12.98 445
13 471
13.02 456
13.04 427
13.06 448
13.08 426
13.1 464
13.12 436
13.14 437
13.16 441
13.18 454
13.2 473
13.22 420
13.24 453
13.26 442
13.28 431
13.3 452
13.32 462
13.34 468
13.36 459
13.38 474
13.4 473
13.42 486
13.44 458
13.46 429
13.48 442
13.5 446
13.52 469
13.54 429
13.56 472
13.58 469
13.6 482
13.62 504
13.64 467
13.66 452
13.68 428
13.7 431
13.72 446
13.74 457
13.76 504
13.78 450
13.8 506
13.82 462
13.84 463
13.86 516
13.88 448
13.9 440
13.92 473
13.94 478
13.96 447
13.98 477
14 478
14.02 489
14.04 525
14.06 512
14.08 502
14.1 447
14.12 477
14.14 481
14.16 500
14.18 473
14.2 457
14.22 503
14.24 484
14.26 496
14.28 452
14.3 471
14.32 487
14.34 453
14.36 515
14.38 543
14.4 530
14.42 515
14.44 503
14.46 533
14.48 512
14.5 496
14.52 518
14.54 508
14.56 456
14.58 517
14.6 505
14.62 477
14.64 538
14.66 509
14.68 500
14.7 494
14.72 499
14.74 483
14.76 525
14.78 470
14.8 499
14.82 577
14.84 527
14.86 518
14.88 530
14.9 519
14.92 548
14.94 510
14.96 509
14.98 529
15 540
15.02 516
15.04 544
15.06 502
15.08 510
15.1 541
15.12 481
15.14 541
15.16 524
15.18 529
15.2 571
15.22 531
15.24 515
15.26 511
15.28 582
15.3 551
15.32 523
15.34 531
15.36 527
15.38 594
15.4 547
15.42 562
15.44 567
15.46 562
15.48 567
15.5 560
15.52 560
15.54 548
15.56 578
15.58 582
15.6 570
15.62 605
15.64 610
15.66 592
15.68 593
15.7 596
15.72 583
15.74 616
15.76 593
15.78 587
15.8 571
15.82 593
15.84 605
15.86 576
15.88 623
15.9 583
15.92 622
15.94 624
15.96 584
15.98 583
16 593
16.02 646
16.04 629
16.06 610
16.08 607
16.1 666
16.12 635
16.14 631
16.16 607
16.18 664
16.2 627
16.22 640
16.24 677
16.26 658
16.28 635
16.3 663
16.32 630
16.34 623
16.36 665
16.38 611
16.4 616
16.42 640
16.44 631
16.46 721
16.48 662
16.5 682
16.52 686
16.54 647
16.56 704
16.58 690
16.6 685
16.62 683
16.64 656
16.66 680
16.68 619
16.7 685
16.72 691
16.74 673
16.76 672
16.78 734
16.8 694
16.82 685
16.84 701
16.86 710
16.88 700
16.9 654
16.92 657
16.94 684
16.96 714
16.98 772
17 695
17.02 684
17.04 742
17.06 749
17.08 756
17.1 714
17.12 680
17.14 729
17.16 741
17.18 718
17.2 738
17.22 725
17.24 797
17.26 741
17.28 756
17.3 776
17.32 771
17.34 790
17.36 802
17.38 773
17.4 768
17.42 753
17.44 783
17.46 748
17.48 787
17.5 826
17.52 769
17.54 776
17.56 840
17.58 770
17.6 811
17.62 826
17.64 810
17.66 778
17.68 846
17.7 840
17.72 883
17.74 847
17.76 879
17.78 820
17.8 803
17.82 804
17.84 801
17.86 860
17.88 879
17.9 820
17.92 918
17.94 857
17.96 831
17.98 907
18 885
18.02 882
18.04 867
18.06 872
18.08 851
18.1 837
18.12 866
18.14 859
18.16 952
18.18 859
18.2 874
18.22 829
18.24 879
18.26 887
18.28 918
18.3 899
18.32 983
18.34 878
18.36 891
18.38 938
18.4 913
18.42 886
18.44 921
18.46 877
18.48 945
18.5 970
18.52 946
18.54 946
18.56 892
18.58 963
18.6 929
18.62 893
18.64 975
18.66 998
18.68 1040
18.7 928
18.72 980
18.74 920
18.76 908
18.78 985
18.8 996
18.82 973
18.84 1005
18.86 997
18.88 1027
18.9 1005
18.92 976
18.94 993
18.96 1042
18.98 980
19 967
19.02 984
19.04 981
19.06 993
19.08 1019
19.1 1000
19.12 927
19.14 1039
19.16 978
19.18 1009
19.2 1003
19.22 1036
19.24 1065
19.26 1055
19.28 1033
19.3 1074
19.32 1093
19.34 1039
19.36 1038
19.38 1043
19.4 1082
19.42 1064
19.44 1068
19.46 1057
19.48 979
19.5 1073
19.52 1130
19.54 1055
19.56 1091
19.58 1091
19.6 1125
19.62 1081
19.64 1095
19.66 1066
19.68 1118
19.7 1049
19.72 1130
19.74 1082
19.76 1083
19.78 1146
19.8 1113
19.82 1112
19.84 1140
19.86 1061
19.88 1078
19.9 1076
19.92 1087
19.94 1148
19.96 1112
19.98 1101
20 1106