File: xrd-UiO-67/pxrddata/78-14.ASC
3 1359
3.02 1344
3.04 1320
3.06 1269
3.08 1272
3.1 1277
3.12 1293
3.14 1273
3.16 1284
3.18 1217
3.2 1236
3.22 1220
3.24 1227
3.26 1212
3.28 1188
3.3 1192
3.32 1212
3.34 1170
3.36 1210
3.38 1188
3.4 1177
3.42 1166
3.44 1205
3.46 1139
3.48 1203
3.5 1154
3.52 1160
3.54 1150
3.56 1114
3.58 1153
3.6 1142
3.62 1155
3.64 1114
3.66 1191
3.68 1131
3.7 1154
3.72 1161
3.74 1177
3.76 1148
3.78 1189
3.8 1154
3.82 1224
3.84 1149
3.86 1175
3.88 1161
3.9 1141
3.92 1138
3.94 1205
3.96 1173
3.98 1236
4 1182
4.02 1163
4.04 1263
4.06 1190
4.08 1208
4.1 1241
4.12 1243
4.14 1312
4.16 1232
4.18 1216
4.2 1194
4.22 1207
4.24 1219
4.26 1240
4.28 1223
4.3 1289
4.32 1237
4.34 1287
4.36 1271
4.38 1280
4.4 1328
4.42 1363
4.44 1346
4.46 1329
4.48 1375
4.5 1321
4.52 1367
4.54 1386
4.56 1342
4.58 1402
4.6 1378
4.62 1366
4.64 1367
4.66 1332
4.68 1370
4.7 1378
4.72 1400
4.74 1407
4.76 1398
4.78 1398
4.8 1359
4.82 1384
4.84 1467
4.86 1402
4.88 1413
4.9 1409
4.92 1563
4.94 1406
4.96 1536
4.98 1490
5 1427
5.02 1459
5.04 1435
5.06 1497
5.08 1456
5.1 1423
5.12 1539
5.14 1525
5.16 1485
5.18 1461
5.2 1456
5.22 1529
5.24 1509
5.26 1470
5.28 1545
5.3 1551
5.32 1557
5.34 1526
5.36 1551
5.38 1645
5.4 1655
5.42 1601
5.44 1653
5.46 1658
5.48 1675
5.5 1745
5.52 1845
5.54 1833
5.56 1858
5.58 1913
5.6 1888
5.62 1986
5.64 2154
5.66 2235
5.68 2459
5.7 2796
5.72 3032
5.74 2556
5.76 2187
5.78 1694
5.8 1430
5.82 1297
5.84 1259
5.86 1328
5.88 1146
5.9 1186
5.92 1112
5.94 1201
5.96 1116
5.98 1169
6 1173
6.02 1217
6.04 1155
6.06 1108
6.08 1088
6.1 1070
6.12 1147
6.14 1140
6.16 1180
6.18 1114
6.2 1118
6.22 1130
6.24 1123
6.26 1093
6.28 1092
6.3 1115
6.32 1101
6.34 1113
6.36 1110
6.38 1195
6.4 1198
6.42 1223
6.44 1245
6.46 1263
6.48 1318
6.5 1351
6.52 1492
6.54 1602
6.56 1702
6.58 1847
6.6 1877
6.62 1715
6.64 1468
6.66 1151
6.68 1035
6.7 923
6.72 874
6.74 953
6.76 897
6.78 862
6.8 880
6.82 899
6.84 921
6.86 879
6.88 898
6.9 905
6.92 881
6.94 876
6.96 912
6.98 796
7 878
7.02 898
7.04 869
7.06 853
7.08 877
7.1 845
7.12 797
7.14 800
7.16 816
7.18 824
7.2 831
7.22 843
7.24 819
7.26 803
7.28 803
7.3 811
7.32 842
7.34 839
7.36 833
7.38 805
7.4 830
7.42 800
7.44 809
7.46 788
7.48 812
7.5 748
7.52 837
7.54 815
7.56 759
7.58 809
7.6 762
7.62 775
7.64 754
7.66 804
7.68 788
7.7 799
7.72 766
7.74 796
7.76 800
7.78 768
7.8 802
7.82 754
7.84 751
7.86 774
7.88 756
7.9 779
7.92 723
7.94 782
7.96 763
7.98 763
8 774
8.02 752
8.04 777
8.06 769
8.08 751
8.1 748
8.12 734
8.14 810
8.16 772
8.18 758
8.2 768
8.22 735
8.24 732
8.26 733
8.28 748
8.3 791
8.32 753
8.34 782
8.36 779
8.38 767
8.4 766
8.42 745
8.44 771
8.46 773
8.48 833
8.5 780
8.52 782
8.54 758
8.56 773
8.58 775
8.6 712
8.62 761
8.64 801
8.66 790
8.68 793
8.7 778
8.72 767
8.74 783
8.76 769
8.78 781
8.8 781
8.82 790
8.84 782
8.86 751
8.88 810
8.9 831
8.92 756
8.94 763
8.96 809
8.98 807
9 834
9.02 787
9.04 829
9.06 868
9.08 896
9.1 802
9.12 910
9.14 864
9.16 925
9.18 948
9.2 1018
9.22 1035
9.24 1140
9.26 1200
9.28 1335
9.3 1447
9.32 1448
9.34 1399
9.36 1229
9.38 1059
9.4 851
9.42 804
9.44 778
9.46 751
9.48 746
9.5 764
9.52 776
9.54 780
9.56 755
9.58 748
9.6 793
9.62 710
9.64 750
9.66 781
9.68 761
9.7 768
9.72 771
9.74 801
9.76 777
9.78 769
9.8 740
9.82 785
9.84 737
9.86 754
9.88 710
9.9 737
9.92 710
9.94 756
9.96 715
9.98 731
10 730
10.02 788
10.04 743
10.06 749
10.08 734
10.1 747
10.12 785
10.14 777
10.16 785
10.18 746
10.2 735
10.22 700
10.24 708
10.26 736
10.28 755
10.3 715
10.32 746
10.34 744
10.36 742
10.38 723
10.4 719
10.42 726
10.44 712
10.46 761
10.48 775
10.5 755
10.52 713
10.54 760
10.56 783
10.58 718
10.6 771
10.62 765
10.64 767
10.66 842
10.68 843
10.7 781
10.72 816
10.74 815
10.76 867
10.78 882
10.8 922
10.82 893
10.84 1023
10.86 1072
10.88 1136
10.9 1268
10.92 1318
10.94 1291
10.96 1230
10.98 1062
11 910
11.02 810
11.04 770
11.06 749
11.08 756
11.1 716
11.12 810
11.14 705
11.16 769
11.18 782
11.2 734
11.22 737
11.24 764
11.26 806
11.28 805
11.3 815
11.32 791
11.34 796
11.36 894
11.38 926
11.4 1011
11.42 1029
11.44 999
11.46 898
11.48 765
11.5 768
11.52 775
11.54 711
11.56 739
11.58 667
11.6 710
11.62 699
11.64 731
11.66 702
11.68 718
11.7 738
11.72 716
11.74 705
11.76 664
11.78 710
11.8 707
11.82 696
11.84 691
11.86 711
11.88 714
11.9 718
11.92 727
11.94 718
11.96 723
11.98 670
12 712
12.02 701
12.04 660
12.06 716
12.08 732
12.1 735
12.12 705
12.14 696
12.16 703
12.18 698
12.2 686
12.22 744
12.24 682
12.26 718
12.28 694
12.3 788
12.32 712
12.34 644
12.36 679
12.38 719
12.4 688
12.42 720
12.44 719
12.46 713
12.48 725
12.5 727
12.52 704
12.54 716
12.56 684
12.58 725
12.6 659
12.62 721
12.64 711
12.66 685
12.68 747
12.7 734
12.72 694
12.74 711
12.76 723
12.78 689
12.8 779
12.82 739
12.84 738
12.86 741
12.88 706
12.9 722
12.92 731
12.94 700
12.96 691
12.98 722
13 757
13.02 706
13.04 786
13.06 725
13.08 771
13.1 803
13.12 761
13.14 809
13.16 815
13.18 832
13.2 812
13.22 815
13.24 739
13.26 740
13.28 695
13.3 733
13.32 747
13.34 759
13.36 738
13.38 673
13.4 720
13.42 729
13.44 708
13.46 718
13.48 714
13.5 706
13.52 694
13.54 730
13.56 697
13.58 763
13.6 690
13.62 751
13.64 681
13.66 727
13.68 724
13.7 703
13.72 731
13.74 690
13.76 716
13.78 746
13.8 711
13.82 748
13.84 692
13.86 728
13.88 738
13.9 740
13.92 739
13.94 718
13.96 715
13.98 722
14 719
14.02 728
14.04 734
14.06 699
14.08 735
14.1 741
14.12 758
14.14 744
14.16 693
14.18 748
14.2 758
14.22 801
14.24 788
14.26 818
14.28 785
14.3 781
14.32 766
14.34 873
14.36 814
14.38 840
14.4 801
14.42 793
14.44 746
14.46 799
14.48 764
14.5 740
14.52 716
14.54 728
14.56 813
14.58 748
14.6 786
14.62 758
14.64 815
14.66 792
14.68 755
14.7 793
14.72 802
14.74 689
14.76 829
14.78 766
14.8 773
14.82 753
14.84 813
14.86 781
14.88 773
14.9 773
14.92 778
14.94 790
14.96 806
14.98 778
15 791
15.02 770
15.04 771
15.06 802
15.08 789
15.1 771
15.12 761
15.14 790
15.16 810
15.18 801
15.2 794
15.22 815
15.24 794
15.26 797
15.28 819
15.3 809
15.32 717
15.34 815
15.36 794
15.38 835
15.4 800
15.42 795
15.44 765
15.46 821
15.48 842
15.5 770
15.52 839
15.54 850
15.56 844
15.58 830
15.6 798
15.62 800
15.64 813
15.66 795
15.68 832
15.7 781
15.72 825
15.74 821
15.76 807
15.78 793
15.8 790
15.82 854
15.84 869
15.86 871
15.88 873
15.9 865
15.92 850
15.94 857
15.96 878
15.98 807
16 824
16.02 838
16.04 811
16.06 851
16.08 857
16.1 820
16.12 830
16.14 847
16.16 863
16.18 869
16.2 856
16.22 824
16.24 835
16.26 872
16.28 847
16.3 847
16.32 884
16.34 864
16.36 869
16.38 896
16.4 857
16.42 892
16.44 846
16.46 866
16.48 873
16.5 932
16.52 869
16.54 910
16.56 854
16.58 881
16.6 840
16.62 934
16.64 917
16.66 865
16.68 896
16.7 876
16.72 872
16.74 873
16.76 890
16.78 898
16.8 911
16.82 892
16.84 930
16.86 928
16.88 904
16.9 903
16.92 872
16.94 966
16.96 982
16.98 938
17 893
17.02 977
17.04 943
17.06 936
17.08 955
17.1 967
17.12 998
17.14 980
17.16 1009
17.18 1019
17.2 957
17.22 950
17.24 924
17.26 933
17.28 951
17.3 913
17.32 939
17.34 915
17.36 935
17.38 1001
17.4 938
17.42 952
17.44 954
17.46 948
17.48 982
17.5 932
17.52 916
17.54 967
17.56 940
17.58 941
17.6 998
17.62 936
17.64 944
17.66 962
17.68 986
17.7 998
17.72 978
17.74 1018
17.76 962
17.78 981
17.8 1005
17.82 988
17.84 990
17.86 981
17.88 1025
17.9 1015
17.92 975
17.94 932
17.96 1033
17.98 986
18 1005
18.02 981
18.04 1030
18.06 1042
18.08 1028
18.1 1055
18.12 1053
18.14 1050
18.16 1032
18.18 998
18.2 1055
18.22 1045
18.24 1047
18.26 1053
18.28 1017
18.3 1061
18.32 1041
18.34 1048
18.36 1007
18.38 1034
18.4 1044
18.42 1105
18.44 1105
18.46 1089
18.48 1057
18.5 1041
18.52 1013
18.54 1075
18.56 1035
18.58 1017
18.6 1048
18.62 996
18.64 1056
18.66 1051
18.68 1128
18.7 1076
18.72 1051
18.74 1022
18.76 1067
18.78 1088
18.8 1064
18.82 1075
18.84 1067
18.86 1066
18.88 1056
18.9 1168
18.92 1129
18.94 1097
18.96 1112
18.98 1115
19 1045
19.02 1113
19.04 1095
19.06 1085
19.08 1085
19.1 1077
19.12 1149
19.14 1071
19.16 1146
19.18 1156
19.2 1157
19.22 1079
19.24 1138
19.26 1115
19.28 1202
19.3 1216
19.32 1177
19.34 1162
19.36 1192
19.38 1105
19.4 1160
19.42 1195
19.44 1253
19.46 1124
19.48 1221
19.5 1239
19.52 1344
19.54 1325
19.56 1304
19.58 1276
19.6 1281
19.62 1233
19.64 1203
19.66 1187
19.68 1237
19.7 1214
19.72 1253
19.74 1274
19.76 1284
19.78 1402
19.8 1486
19.82 1462
19.84 1418
19.86 1433
19.88 1362
19.9 1319
19.92 1240
19.94 1182
19.96 1193
19.98 1147
20 1146