File: xrd-UiO-67/pxrddata/78-5.ASC
3 1220
3.02 1140
3.04 1192
3.06 1122
3.08 1132
3.1 1151
3.12 1125
3.14 1116
3.16 1056
3.18 1050
3.2 1040
3.22 1026
3.24 1061
3.26 1073
3.28 998
3.3 961
3.32 962
3.34 1007
3.36 982
3.38 1014
3.4 958
3.42 935
3.44 971
3.46 950
3.48 935
3.5 926
3.52 986
3.54 954
3.56 908
3.58 912
3.6 853
3.62 940
3.64 954
3.66 893
3.68 865
3.7 901
3.72 855
3.74 934
3.76 823
3.78 888
3.8 847
3.82 828
3.84 854
3.86 914
3.88 863
3.9 844
3.92 891
3.94 875
3.96 882
3.98 831
4 885
4.02 863
4.04 881
4.06 869
4.08 876
4.1 872
4.12 774
4.14 806
4.16 867
4.18 828
4.2 794
4.22 747
4.24 756
4.26 721
4.28 744
4.3 762
4.32 744
4.34 724
4.36 728
4.38 672
4.4 765
4.42 707
4.44 761
4.46 698
4.48 708
4.5 741
4.52 726
4.54 747
4.56 724
4.58 759
4.6 715
4.62 754
4.64 710
4.66 713
4.68 742
4.7 771
4.72 761
4.74 785
4.76 769
4.78 771
4.8 763
4.82 756
4.84 830
4.86 778
4.88 778
4.9 742
4.92 796
4.94 781
4.96 867
4.98 827
5 816
5.02 860
5.04 935
5.06 894
5.08 972
5.1 945
5.12 1033
5.14 1042
5.16 1033
5.18 1075
5.2 1148
5.22 1233
5.24 1213
5.26 1233
5.28 1312
5.3 1390
5.32 1464
5.34 1483
5.36 1551
5.38 1665
5.4 1743
5.42 1826
5.44 1761
5.46 1800
5.48 1910
5.5 2096
5.52 2213
5.54 2308
5.56 2479
5.58 2666
5.6 2998
5.62 3376
5.64 3627
5.66 4308
5.68 5272
5.7 6334
5.72 6570
5.74 5188
5.76 3596
5.78 2346
5.8 1786
5.82 1316
5.84 1176
5.86 1074
5.88 971
5.9 924
5.92 896
5.94 875
5.96 801
5.98 851
6 881
6.02 808
6.04 868
6.06 847
6.08 880
6.1 836
6.12 837
6.14 880
6.16 882
6.18 893
6.2 938
6.22 958
6.24 940
6.26 964
6.28 1053
6.3 1078
6.32 1062
6.34 1142
6.36 1209
6.38 1231
6.4 1393
6.42 1479
6.44 1485
6.46 1619
6.48 1666
6.5 1899
6.52 2062
6.54 2393
6.56 2882
6.58 3490
6.6 3491
6.62 2726
6.64 1769
6.66 1272
6.68 993
6.7 950
6.72 882
6.74 856
6.76 825
6.78 789
6.8 673
6.82 673
6.84 658
6.86 672
6.88 668
6.9 670
6.92 662
6.94 652
6.96 617
6.98 624
7 594
7.02 637
7.04 621
7.06 626
7.08 624
7.1 658
7.12 618
7.14 616
7.16 623
7.18 665
7.2 652
7.22 672
7.24 637
7.26 648
7.28 655
7.3 656
7.32 621
7.34 597
7.36 640
7.38 632
7.4 624
7.42 633
7.44 621
7.46 656
7.48 615
7.5 593
7.52 647
7.54 610
7.56 644
7.58 637
7.6 653
7.62 632
7.64 621
7.66 627
7.68 624
7.7 595
7.72 627
7.74 628
7.76 591
7.78 622
7.8 602
7.82 628
7.84 589
7.86 604
7.88 592
7.9 616
7.92 603
7.94 587
7.96 641
7.98 601
8 602
8.02 628
8.04 644
8.06 634
8.08 647
8.1 603
8.12 646
8.14 623
8.16 600
8.18 611
8.2 598
8.22 647
8.24 635
8.26 576
8.28 563
8.3 585
8.32 590
8.34 634
8.36 632
8.38 629
8.4 635
8.42 651
8.44 631
8.46 596
8.48 596
8.5 594
8.52 603
8.54 607
8.56 615
8.58 602
8.6 605
8.62 641
8.64 620
8.66 606
8.68 639
8.7 612
8.72 624
8.74 661
8.76 677
8.78 653
8.8 677
8.82 659
8.84 623
8.86 681
8.88 672
8.9 674
8.92 739
8.94 724
8.96 733
8.98 753
9 769
9.02 808
9.04 896
9.06 885
9.08 896
9.1 958
9.12 1031
9.14 1055
9.16 1131
9.18 1226
9.2 1322
9.22 1438
9.24 1606
9.26 1838
9.28 2310
9.3 2647
9.32 2805
9.34 2465
9.36 1675
9.38 1143
9.4 907
9.42 808
9.44 702
9.46 658
9.48 655
9.5 600
9.52 671
9.54 630
9.56 630
9.58 582
9.6 637
9.62 638
9.64 586
9.66 589
9.68 616
9.7 637
9.72 605
9.74 633
9.76 649
9.78 635
9.8 611
9.82 613
9.84 657
9.86 620
9.88 672
9.9 593
9.92 656
9.94 597
9.96 603
9.98 600
10 635
10.02 650
10.04 643
10.06 641
10.08 649
10.1 690
10.12 668
10.14 678
10.16 683
10.18 666
10.2 646
10.22 649
10.24 592
10.26 647
10.28 614
10.3 661
10.32 612
10.34 622
10.36 620
10.38 579
10.4 631
10.42 627
10.44 651
10.46 631
10.48 643
10.5 661
10.52 644
10.54 697
10.56 751
10.58 758
10.6 801
10.62 762
10.64 806
10.66 810
10.68 900
10.7 946
10.72 1009
10.74 1066
10.76 1041
10.78 1104
10.8 1154
10.82 1292
10.84 1388
10.86 1651
10.88 1900
10.9 2300
10.92 2511
10.94 2445
10.96 1990
10.98 1447
11 1061
11.02 864
11.04 810
11.06 742
11.08 756
11.1 718
11.12 716
11.14 729
11.16 713
11.18 760
11.2 771
11.22 820
11.24 732
11.26 828
11.28 888
11.3 905
11.32 899
11.34 1069
11.36 1117
11.38 1362
11.4 1545
11.42 1518
11.44 1375
11.46 1077
11.48 918
11.5 807
11.52 760
11.54 739
11.56 639
11.58 657
11.6 624
11.62 597
11.64 593
11.66 629
11.68 605
11.7 645
11.72 610
11.74 642
11.76 611
11.78 646
11.8 611
11.82 638
11.84 684
11.86 612
11.88 649
11.9 618
11.92 622
11.94 618
11.96 588
11.98 611
12 601
12.02 638
12.04 659
12.06 646
12.08 640
12.1 698
12.12 680
12.14 660
12.16 681
12.18 670
12.2 635
12.22 619
12.24 636
12.26 676
12.28 635
12.3 638
12.32 662
12.34 653
12.36 638
12.38 646
12.4 632
12.42 653
12.44 632
12.46 634
12.48 637
12.5 612
12.52 648
12.54 629
12.56 592
12.58 609
12.6 653
12.62 635
12.64 630
12.66 618
12.68 623
12.7 616
12.72 645
12.74 594
12.76 632
12.78 640
12.8 643
12.82 628
12.84 669
12.86 667
12.88 652
12.9 682
12.92 688
12.94 660
12.96 638
12.98 716
13 695
13.02 731
13.04 711
13.06 704
13.08 730
13.1 772
13.12 742
13.14 818
13.16 881
13.18 957
13.2 914
13.22 841
13.24 787
13.26 776
13.28 649
13.3 713
13.32 663
13.34 641
13.36 691
13.38 668
13.4 667
13.42 685
13.44 676
13.46 637
13.48 675
13.5 656
13.52 666
13.54 663
13.56 685
13.58 630
13.6 636
13.62 668
13.64 636
13.66 638
13.68 664
13.7 605
13.72 678
13.74 689
13.76 613
13.78 658
13.8 656
13.82 678
13.84 668
13.86 658
13.88 692
13.9 707
13.92 677
13.94 660
13.96 654
13.98 683
14 679
14.02 699
14.04 671
14.06 695
14.08 691
14.1 673
14.12 686
14.14 692
14.16 684
14.18 695
14.2 711
14.22 742
14.24 782
14.26 769
14.28 766
14.3 793
14.32 823
14.34 898
14.36 959
14.38 957
14.4 917
14.42 884
14.44 782
14.46 752
14.48 723
14.5 692
14.52 679
14.54 710
14.56 737
14.58 731
14.6 752
14.62 683
14.64 707
14.66 719
14.68 743
14.7 787
14.72 757
14.74 822
14.76 735
14.78 796
14.8 773
14.82 756
14.84 714
14.86 747
14.88 725
14.9 702
14.92 703
14.94 717
14.96 729
14.98 703
15 727
15.02 704
15.04 723
15.06 749
15.08 775
15.1 750
15.12 715
15.14 708
15.16 765
15.18 700
15.2 759
15.22 752
15.24 766
15.26 746
15.28 719
15.3 733
15.32 692
15.34 743
15.36 720
15.38 796
15.4 758
15.42 747
15.44 754
15.46 737
15.48 764
15.5 731
15.52 752
15.54 769
15.56 730
15.58 782
15.6 734
15.62 741
15.64 731
15.66 777
15.68 792
15.7 759
15.72 774
15.74 789
15.76 772
15.78 720
15.8 802
15.82 806
15.84 758
15.86 820
15.88 770
15.9 735
15.92 834
15.94 809
15.96 811
15.98 780
16 778
16.02 858
16.04 771
16.06 759
16.08 818
16.1 833
16.12 794
16.14 829
16.16 809
16.18 807
16.2 797
16.22 831
16.24 846
16.26 855
16.28 833
16.3 854
16.32 824
16.34 818
16.36 826
16.38 836
16.4 807
16.42 818
16.44 817
16.46 843
16.48 820
16.5 866
16.52 818
16.54 881
16.56 885
16.58 855
16.6 847
16.62 860
16.64 879
16.66 856
16.68 811
16.7 856
16.72 857
16.74 816
16.76 847
16.78 822
16.8 838
16.82 889
16.84 872
16.86 929
16.88 942
16.9 826
16.92 945
16.94 929
16.96 908
16.98 858
17 881
17.02 942
17.04 990
17.06 995
17.08 1048
17.1 1113
17.12 1116
17.14 1150
17.16 1124
17.18 1133
17.2 1083
17.22 1040
17.24 995
17.26 1001
17.28 946
17.3 914
17.32 919
17.34 892
17.36 931
17.38 931
17.4 920
17.42 900
17.44 936
17.46 934
17.48 956
17.5 944
17.52 914
17.54 945
17.56 969
17.58 920
17.6 938
17.62 991
17.64 996
17.66 971
17.68 985
17.7 1015
17.72 959
17.74 966
17.76 981
17.78 1014
17.8 972
17.82 1001
17.84 985
17.86 981
17.88 975
17.9 975
17.92 982
17.94 995
17.96 953
17.98 969
18 1000
18.02 1005
18.04 1023
18.06 979
18.08 1050
18.1 1011
18.12 975
18.14 967
18.16 931
18.18 962
18.2 997
18.22 979
18.24 980
18.26 993
18.28 1025
18.3 1019
18.32 1059
18.34 988
18.36 990
18.38 1074
18.4 1007
18.42 1082
18.44 1060
18.46 1058
18.48 1053
18.5 1081
18.52 1088
18.54 1053
18.56 1013
18.58 1088
18.6 1121
18.62 1025
18.64 1116
18.66 1101
18.68 1088
18.7 1069
18.72 1116
18.74 1109
18.76 1090
18.78 1098
18.8 1066
18.82 1055
18.84 1063
18.86 1120
18.88 1089
18.9 1142
18.92 1084
18.94 1147
18.96 1145
18.98 1172
19 1232
19.02 1241
19.04 1199
19.06 1185
19.08 1135
19.1 1115
19.12 1155
19.14 1164
19.16 1211
19.18 1162
19.2 1147
19.22 1176
19.24 1164
19.26 1150
19.28 1144
19.3 1194
19.32 1268
19.34 1192
19.36 1185
19.38 1298
19.4 1234
19.42 1309
19.44 1389
19.46 1439
19.48 1500
19.5 1633
19.52 1752
19.54 1830
19.56 1893
19.58 1840
19.6 1612
19.62 1491
19.64 1460
19.66 1327
19.68 1387
19.7 1421
19.72 1447
19.74 1515
19.76 1674
19.78 1833
19.8 2044
19.82 2249
19.84 2177
19.86 2003
19.88 1880
19.9 1590
19.92 1468
19.94 1275
19.96 1274
19.98 1238
20 1215