File: xrd-UiO-67/pxrddata/8-18.ASC
3 2315
3.02 2207
3.04 2054
3.06 1851
3.08 1868
3.1 1753
3.12 1671
3.14 1691
3.16 1667
3.18 1619
3.2 1543
3.22 1588
3.24 1484
3.26 1552
3.28 1549
3.3 1416
3.32 1395
3.34 1455
3.36 1416
3.38 1439
3.4 1355
3.42 1379
3.44 1390
3.46 1373
3.48 1371
3.5 1308
3.52 1349
3.54 1300
3.56 1258
3.58 1288
3.6 1258
3.62 1245
3.64 1237
3.66 1241
3.68 1173
3.7 1175
3.72 1241
3.74 1184
3.76 1182
3.78 1228
3.8 1175
3.82 1123
3.84 1107
3.86 1163
3.88 1101
3.9 1132
3.92 1104
3.94 1088
3.96 1114
3.98 1066
4 1096
4.02 1052
4.04 1050
4.06 1008
4.08 1028
4.1 1041
4.12 1050
4.14 1035
4.16 979
4.18 993
4.2 1032
4.22 971
4.24 983
4.26 974
4.28 992
4.3 942
4.32 986
4.34 934
4.36 969
4.38 993
4.4 933
4.42 859
4.44 927
4.46 882
4.48 922
4.5 901
4.52 925
4.54 868
4.56 900
4.58 873
4.6 842
4.62 867
4.64 886
4.66 869
4.68 898
4.7 874
4.72 872
4.74 844
4.76 882
4.78 841
4.8 821
4.82 820
4.84 871
4.86 857
4.88 789
4.9 837
4.92 849
4.94 794
4.96 832
4.98 793
5 779
5.02 825
5.04 818
5.06 753
5.08 794
5.1 809
5.12 779
5.14 822
5.16 831
5.18 777
5.2 790
5.22 782
5.24 777
5.26 773
5.28 806
5.3 739
5.32 803
5.34 730
5.36 788
5.38 785
5.4 764
5.42 793
5.44 790
5.46 798
5.48 759
5.5 749
5.52 796
5.54 754
5.56 739
5.58 787
5.6 707
5.62 788
5.64 762
5.66 785
5.68 758
5.7 763
5.72 793
5.74 771
5.76 750
5.78 784
5.8 759
5.82 785
5.84 785
5.86 771
5.88 764
5.9 737
5.92 736
5.94 723
5.96 727
5.98 758
6 740
6.02 721
6.04 734
6.06 738
6.08 761
6.1 705
6.12 766
6.14 748
6.16 726
6.18 743
6.2 718
6.22 697
6.24 698
6.26 759
6.28 690
6.3 696
6.32 719
6.34 693
6.36 742
6.38 707
6.4 701
6.42 718
6.44 716
6.46 754
6.48 727
6.5 756
6.52 730
6.54 757
6.56 669
6.58 750
6.6 701
6.62 727
6.64 778
6.66 795
6.68 730
6.7 743
6.72 779
6.74 711
6.76 744
6.78 742
6.8 749
6.82 722
6.84 688
6.86 706
6.88 672
6.9 695
6.92 770
6.94 761
6.96 729
6.98 778
7 718
7.02 732
7.04 717
7.06 735
7.08 729
7.1 691
7.12 699
7.14 735
7.16 729
7.18 707
7.2 759
7.22 717
7.24 657
7.26 676
7.28 760
7.3 722
7.32 690
7.34 671
7.36 679
7.38 723
7.4 681
7.42 739
7.44 681
7.46 716
7.48 689
7.5 702
7.52 683
7.54 691
7.56 707
7.58 684
7.6 688
7.62 663
7.64 748
7.66 696
7.68 640
7.7 677
7.72 694
7.74 676
7.76 679
7.78 666
7.8 702
7.82 697
7.84 653
7.86 699
7.88 677
7.9 713
7.92 718
7.94 655
7.96 660
7.98 630
8 691
8.02 667
8.04 732
8.06 686
8.08 638
8.1 643
8.12 683
8.14 698
8.16 673
8.18 680
8.2 687
8.22 662
8.24 653
8.26 651
8.28 690
8.3 659
8.32 688
8.34 692
8.36 664
8.38 670
8.4 649
8.42 682
8.44 711
8.46 667
8.48 654
8.5 627
8.52 656
8.54 661
8.56 656
8.58 715
8.6 703
8.62 612
8.64 679
8.66 682
8.68 676
8.7 642
8.72 689
8.74 677
8.76 662
8.78 674
8.8 666
8.82 660
8.84 667
8.86 669
8.88 644
8.9 665
8.92 704
8.94 643
8.96 660
8.98 694
9 624
9.02 694
9.04 658
9.06 638
9.08 639
9.1 653
9.12 659
9.14 685
9.16 670
9.18 652
9.2 700
9.22 705
9.24 669
9.26 657
9.28 664
9.3 652
9.32 654
9.34 628
9.36 625
9.38 627
9.4 663
9.42 624
9.44 625
9.46 648
9.48 667
9.5 631
9.52 668
9.54 684
9.56 648
9.58 628
9.6 622
9.62 623
9.64 651
9.66 672
9.68 613
9.7 674
9.72 668
9.74 660
9.76 673
9.78 616
9.8 642
9.82 656
9.84 632
9.86 679
9.88 618
9.9 594
9.92 633
9.94 644
9.96 599
9.98 661
10 658
10.02 642
10.04 627
10.06 631
10.08 619
10.1 663
10.12 601
10.14 607
10.16 628
10.18 616
10.2 642
10.22 615
10.24 643
10.26 597
10.28 615
10.3 617
10.32 635
10.34 579
10.36 614
10.38 638
10.4 617
10.42 640
10.44 614
10.46 610
10.48 601
10.5 630
10.52 583
10.54 616
10.56 600
10.58 612
10.6 666
10.62 596
10.64 615
10.66 591
10.68 629
10.7 630
10.72 577
10.74 672
10.76 643
10.78 562
10.8 624
10.82 603
10.84 633
10.86 573
10.88 605
10.9 605
10.92 602
10.94 578
10.96 576
10.98 585
11 622
11.02 598
11.04 601
11.06 619
11.08 625
11.1 597
11.12 581
11.14 611
11.16 594
11.18 572
11.2 595
11.22 575
11.24 630
11.26 631
11.28 594
11.3 596
11.32 611
11.34 593
11.36 538
11.38 613
11.4 640
11.42 615
11.44 608
11.46 637
11.48 620
11.5 625
11.52 628
11.54 612
11.56 585
11.58 589
11.6 577
11.62 607
11.64 513
11.66 555
11.68 652
11.7 555
11.72 596
11.74 598
11.76 593
11.78 588
11.8 615
11.82 649
11.84 576
11.86 571
11.88 567
11.9 550
11.92 611
11.94 594
11.96 604
11.98 607
12 637
12.02 618
12.04 573
12.06 611
12.08 588
12.1 573
12.12 592
12.14 558
12.16 619
12.18 640
12.2 565
12.22 611
12.24 556
12.26 599
12.28 592
12.3 599
12.32 572
12.34 566
12.36 586
12.38 585
12.4 645
12.42 588
12.44 593
12.46 578
12.48 578
12.5 574
12.52 590
12.54 623
12.56 572
12.58 568
12.6 587
12.62 574
12.64 597
12.66 580
12.68 632
12.7 623
12.72 533
12.74 561
12.76 523
12.78 610
12.8 599
12.82 622
12.84 592
12.86 576
12.88 582
12.9 603
12.92 562
12.94 597
12.96 567
12.98 569
13 552
13.02 584
13.04 640
13.06 651
13.08 559
13.1 616
13.12 580
13.14 583
13.16 583
13.18 624
13.2 638
13.22 616
13.24 678
13.26 647
13.28 670
13.3 629
13.32 621
13.34 636
13.36 601
13.38 584
13.4 637
13.42 603
13.44 617
13.46 599
13.48 629
13.5 625
13.52 621
13.54 637
13.56 626
13.58 595
13.6 627
13.62 616
13.64 618
13.66 629
13.68 624
13.7 596
13.72 595
13.74 635
13.76 578
13.78 600
13.8 645
13.82 601
13.84 593
13.86 599
13.88 607
13.9 614
13.92 592
13.94 614
13.96 628
13.98 601
14 601
14.02 612
14.04 651
14.06 628
14.08 600
14.1 632
14.12 586
14.14 612
14.16 673
14.18 628
14.2 638
14.22 643
14.24 651
14.26 642
14.28 638
14.3 623
14.32 640
14.34 616
14.36 595
14.38 655
14.4 610
14.42 635
14.44 653
14.46 653
14.48 668
14.5 661
14.52 599
14.54 644
14.56 664
14.58 638
14.6 609
14.62 588
14.64 581
14.66 651
14.68 629
14.7 647
14.72 667
14.74 635
14.76 591
14.78 599
14.8 618
14.82 619
14.84 635
14.86 655
14.88 635
14.9 679
14.92 680
14.94 667
14.96 645
14.98 656
15 678
15.02 655
15.04 644
15.06 648
15.08 634
15.1 666
15.12 652
15.14 623
15.16 659
15.18 648
15.2 671
15.22 672
15.24 722
15.26 642
15.28 718
15.3 669
15.32 649
15.34 696
15.36 665
15.38 649
15.4 721
15.42 662
15.44 693
15.46 657
15.48 708
15.5 695
15.52 691
15.54 669
15.56 657
15.58 658
15.6 690
15.62 707
15.64 703
15.66 691
15.68 722
15.7 711
15.72 723
15.74 704
15.76 672
15.78 703
15.8 742
15.82 709
15.84 750
15.86 739
15.88 742
15.9 735
15.92 757
15.94 733
15.96 748
15.98 687
16 715
16.02 706
16.04 758
16.06 715
16.08 743
16.1 750
16.12 766
16.14 714
16.16 724
16.18 731
16.2 717
16.22 773
16.24 728
16.26 778
16.28 770
16.3 776
16.32 738
16.34 789
16.36 769
16.38 748
16.4 771
16.42 802
16.44 746
16.46 762
16.48 769
16.5 766
16.52 746
16.54 769
16.56 743
16.58 843
16.6 783
16.62 805
16.64 871
16.66 917
16.68 862
16.7 928
16.72 936
16.74 939
16.76 995
16.78 1109
16.8 1130
16.82 1262
16.84 1430
16.86 1674
16.88 1775
16.9 1933
16.92 2019
16.94 2126
16.96 2156
16.98 2072
17 2204
17.02 2098
17.04 2077
17.06 1963
17.08 1775
17.1 1730
17.12 1567
17.14 1493
17.16 1416
17.18 1322
17.2 1267
17.22 1211
17.24 1079
17.26 960
17.28 953
17.3 959
17.32 895
17.34 889
17.36 889
17.38 866
17.4 834
17.42 923
17.44 879
17.46 873
17.48 840
17.5 893
17.52 902
17.54 849
17.56 833
17.58 896
17.6 869
17.62 916
17.64 899
17.66 855
17.68 882
17.7 811
17.72 860
17.74 874
17.76 878
17.78 914
17.8 945
17.82 884
17.84 891
17.86 873
17.88 881
17.9 931
17.92 878
17.94 954
17.96 924
17.98 900
18 921
18.02 899
18.04 934
18.06 944
18.08 940
18.1 971
18.12 951
18.14 960
18.16 928
18.18 949
18.2 881
18.22 944
18.24 1003
18.26 954
18.28 974
18.3 1023
18.32 944
18.34 912
18.36 962
18.38 957
18.4 1007
18.42 963
18.44 992
18.46 1001
18.48 957
18.5 1007
18.52 930
18.54 1000
18.56 1022
18.58 969
18.6 1012
18.62 970
18.64 1038
18.66 995
18.68 979
18.7 947
18.72 1008
18.74 1029
18.76 980
18.78 1061
18.8 1047
18.82 1067
18.84 1031
18.86 948
18.88 1012
18.9 1021
18.92 1017
18.94 1059
18.96 1025
18.98 1035
19 1090
19.02 1027
19.04 1007
19.06 1016
19.08 1056
19.1 1072
19.12 1073
19.14 1032
19.16 1021
19.18 1038
19.2 1038
19.22 1026
19.24 1018
19.26 1063
19.28 1014
19.3 1053
19.32 1069
19.34 1135
19.36 1080
19.38 1093
19.4 1102
19.42 1098
19.44 1028
19.46 1089
19.48 1084
19.5 1056
19.52 1128
19.54 1137
19.56 1064
19.58 1132
19.6 1095
19.62 1099
19.64 1112
19.66 1083
19.68 1109
19.7 1111
19.72 1087
19.74 1112
19.76 1113
19.78 1089
19.8 1082
19.82 1185
19.84 1142
19.86 1089
19.88 1087
19.9 1161
19.92 1131
19.94 1215
19.96 1102
19.98 1155
20 1175