File: xrd-UiO-67/pxrddata/8-19.ASC
3 2256
3.02 2180
3.04 2058
3.06 1847
3.08 1824
3.1 1648
3.12 1606
3.14 1598
3.16 1573
3.18 1535
3.2 1564
3.22 1481
3.24 1389
3.26 1492
3.28 1416
3.3 1342
3.32 1371
3.34 1358
3.36 1316
3.38 1293
3.4 1307
3.42 1279
3.44 1352
3.46 1249
3.48 1231
3.5 1238
3.52 1153
3.54 1252
3.56 1220
3.58 1133
3.6 1170
3.62 1159
3.64 1123
3.66 1072
3.68 1087
3.7 1087
3.72 1118
3.74 1117
3.76 1111
3.78 1046
3.8 1053
3.82 1063
3.84 1063
3.86 985
3.88 1010
3.9 1056
3.92 994
3.94 929
3.96 927
3.98 1018
4 911
4.02 950
4.04 978
4.06 963
4.08 898
4.1 918
4.12 854
4.14 924
4.16 927
4.18 835
4.2 837
4.22 840
4.24 831
4.26 848
4.28 862
4.3 869
4.32 822
4.34 839
4.36 830
4.38 787
4.4 783
4.42 830
4.44 827
4.46 766
4.48 807
4.5 772
4.52 749
4.54 749
4.56 789
4.58 760
4.6 759
4.62 767
4.64 781
4.66 769
4.68 716
4.7 771
4.72 742
4.74 752
4.76 742
4.78 743
4.8 678
4.82 738
4.84 726
4.86 728
4.88 712
4.9 653
4.92 694
4.94 686
4.96 729
4.98 768
5 708
5.02 717
5.04 685
5.06 686
5.08 703
5.1 696
5.12 643
5.14 659
5.16 682
5.18 662
5.2 656
5.22 663
5.24 671
5.26 624
5.28 670
5.3 688
5.32 679
5.34 666
5.36 696
5.38 656
5.4 610
5.42 646
5.44 632
5.46 675
5.48 642
5.5 660
5.52 681
5.54 642
5.56 676
5.58 651
5.6 680
5.62 647
5.64 670
5.66 640
5.68 632
5.7 632
5.72 650
5.74 634
5.76 683
5.78 675
5.8 625
5.82 599
5.84 661
5.86 657
5.88 652
5.9 673
5.92 623
5.94 627
5.96 593
5.98 628
6 638
6.02 663
6.04 631
6.06 623
6.08 644
6.1 625
6.12 630
6.14 632
6.16 633
6.18 632
6.2 617
6.22 599
6.24 642
6.26 625
6.28 581
6.3 597
6.32 633
6.34 607
6.36 621
6.38 634
6.4 588
6.42 625
6.44 583
6.46 618
6.48 615
6.5 650
6.52 607
6.54 631
6.56 610
6.58 580
6.6 638
6.62 583
6.64 621
6.66 652
6.68 579
6.7 633
6.72 558
6.74 678
6.76 620
6.78 616
6.8 602
6.82 594
6.84 609
6.86 628
6.88 575
6.9 601
6.92 607
6.94 637
6.96 615
6.98 594
7 661
7.02 593
7.04 633
7.06 624
7.08 596
7.1 598
7.12 605
7.14 628
7.16 596
7.18 601
7.2 647
7.22 632
7.24 590
7.26 617
7.28 622
7.3 589
7.32 584
7.34 585
7.36 590
7.38 617
7.4 574
7.42 589
7.44 637
7.46 579
7.48 623
7.5 591
7.52 631
7.54 580
7.56 628
7.58 586
7.6 620
7.62 612
7.64 564
7.66 627
7.68 603
7.7 630
7.72 602
7.74 612
7.76 594
7.78 586
7.8 617
7.82 626
7.84 651
7.86 638
7.88 602
7.9 616
7.92 638
7.94 682
7.96 628
7.98 645
8 645
8.02 646
8.04 637
8.06 611
8.08 648
8.1 642
8.12 624
8.14 652
8.16 616
8.18 670
8.2 694
8.22 666
8.24 655
8.26 650
8.28 629
8.3 672
8.32 685
8.34 680
8.36 647
8.38 654
8.4 698
8.42 712
8.44 674
8.46 714
8.48 770
8.5 770
8.52 851
8.54 780
8.56 838
8.58 873
8.6 912
8.62 884
8.64 1043
8.66 1062
8.68 1103
8.7 1219
8.72 1342
8.74 1348
8.76 1517
8.78 1739
8.8 1950
8.82 2217
8.84 2487
8.86 2612
8.88 2829
8.9 2561
8.92 2207
8.94 1963
8.96 1748
8.98 1787
9 1977
9.02 2139
9.04 2221
9.06 2257
9.08 1680
9.1 1108
9.12 767
9.14 771
9.16 729
9.18 719
9.2 728
9.22 724
9.24 676
9.26 689
9.28 668
9.3 643
9.32 705
9.34 673
9.36 704
9.38 669
9.4 715
9.42 693
9.44 693
9.46 705
9.48 688
9.5 660
9.52 756
9.54 704
9.56 740
9.58 792
9.6 789
9.62 742
9.64 823
9.66 881
9.68 870
9.7 874
9.72 917
9.74 1001
9.76 1067
9.78 1112
9.8 1213
9.82 1285
9.84 1472
9.86 1611
9.88 1828
9.9 2150
9.92 2292
9.94 2700
9.96 2725
9.98 2393
10 1600
10.02 1088
10.04 892
10.06 825
10.08 761
10.1 772
10.12 723
10.14 709
10.16 666
10.18 677
10.2 683
10.22 688
10.24 647
10.26 647
10.28 572
10.3 600
10.32 653
10.34 633
10.36 605
10.38 615
10.4 611
10.42 572
10.44 618
10.46 617
10.48 585
10.5 590
10.52 586
10.54 588
10.56 572
10.58 584
10.6 583
10.62 630
10.64 615
10.66 630
10.68 589
10.7 594
10.72 611
10.74 553
10.76 551
10.78 576
10.8 580
10.82 600
10.84 584
10.86 562
10.88 584
10.9 603
10.92 558
10.94 581
10.96 584
10.98 582
11 597
11.02 571
11.04 602
11.06 654
11.08 576
11.1 559
11.12 540
11.14 574
11.16 549
11.18 572
11.2 560
11.22 607
11.24 565
11.26 558
11.28 548
11.3 572
11.32 578
11.34 569
11.36 581
11.38 581
11.4 555
11.42 572
11.44 567
11.46 546
11.48 567
11.5 537
11.52 625
11.54 583
11.56 546
11.58 560
11.6 583
11.62 540
11.64 577
11.66 598
11.68 569
11.7 534
11.72 577
11.74 577
11.76 560
11.78 555
11.8 570
11.82 561
11.84 570
11.86 539
11.88 583
11.9 573
11.92 537
11.94 584
11.96 575
11.98 548
12 569
12.02 569
12.04 587
12.06 601
12.08 581
12.1 568
12.12 556
12.14 545
12.16 591
12.18 598
12.2 588
12.22 563
12.24 566
12.26 549
12.28 592
12.3 648
12.32 619
12.34 582
12.36 650
12.38 655
12.4 601
12.42 643
12.44 678
12.46 641
12.48 700
12.5 701
12.52 817
12.54 794
12.56 932
12.58 978
12.6 993
12.62 999
12.64 1050
12.66 1042
12.68 952
12.7 800
12.72 763
12.74 747
12.76 625
12.78 673
12.8 640
12.82 666
12.84 590
12.86 587
12.88 602
12.9 601
12.92 643
12.94 619
12.96 605
12.98 597
13 596
13.02 617
13.04 629
13.06 655
13.08 663
13.1 671
13.12 663
13.14 640
13.16 663
13.18 708
13.2 705
13.22 785
13.24 816
13.26 866
13.28 916
13.3 1002
13.32 1152
13.34 1258
13.36 1394
13.38 1561
13.4 1617
13.42 1673
13.44 1529
13.46 1258
13.48 982
13.5 731
13.52 707
13.54 637
13.56 631
13.58 628
13.6 597
13.62 577
13.64 613
13.66 587
13.68 594
13.7 625
13.72 586
13.74 563
13.76 638
13.78 580
13.8 611
13.82 590
13.84 613
13.86 625
13.88 631
13.9 634
13.92 637
13.94 592
13.96 615
13.98 583
14 627
14.02 608
14.04 614
14.06 611
14.08 613
14.1 610
14.12 613
14.14 622
14.16 653
14.18 610
14.2 619
14.22 581
14.24 571
14.26 585
14.28 644
14.3 616
14.32 613
14.34 602
14.36 643
14.38 637
14.4 614
14.42 618
14.44 642
14.46 621
14.48 604
14.5 595
14.52 614
14.54 634
14.56 624
14.58 611
14.6 615
14.62 624
14.64 627
14.66 628
14.68 615
14.7 612
14.72 642
14.74 614
14.76 620
14.78 655
14.8 646
14.82 637
14.84 622
14.86 655
14.88 642
14.9 630
14.92 638
14.94 636
14.96 632
14.98 627
15 624
15.02 643
15.04 661
15.06 697
15.08 664
15.1 639
15.12 698
15.14 645
15.16 651
15.18 725
15.2 694
15.22 640
15.24 671
15.26 670
15.28 666
15.3 650
15.32 651
15.34 680
15.36 711
15.38 700
15.4 684
15.42 660
15.44 694
15.46 655
15.48 724
15.5 632
15.52 634
15.54 694
15.56 696
15.58 655
15.6 715
15.62 672
15.64 675
15.66 677
15.68 622
15.7 643
15.72 719
15.74 695
15.76 703
15.78 690
15.8 710
15.82 669
15.84 654
15.86 702
15.88 659
15.9 733
15.92 728
15.94 690
15.96 709
15.98 695
16 661
16.02 716
16.04 728
16.06 696
16.08 676
16.1 695
16.12 693
16.14 682
16.16 719
16.18 684
16.2 693
16.22 770
16.24 670
16.26 744
16.28 721
16.3 756
16.32 749
16.34 743
16.36 714
16.38 701
16.4 714
16.42 729
16.44 761
16.46 739
16.48 766
16.5 712
16.52 701
16.54 760
16.56 759
16.58 750
16.6 745
16.62 707
16.64 774
16.66 718
16.68 761
16.7 786
16.72 811
16.74 783
16.76 829
16.78 865
16.8 783
16.82 821
16.84 842
16.86 899
16.88 888
16.9 906
16.92 1041
16.94 997
16.96 1052
16.98 1166
17 1298
17.02 1383
17.04 1449
17.06 1416
17.08 1294
17.1 1085
17.12 988
17.14 912
17.16 892
17.18 819
17.2 813
17.22 861
17.24 765
17.26 754
17.28 780
17.3 802
17.32 807
17.34 838
17.36 844
17.38 845
17.4 822
17.42 827
17.44 804
17.46 805
17.48 839
17.5 831
17.52 849
17.54 916
17.56 873
17.58 886
17.6 854
17.62 908
17.64 906
17.66 914
17.68 924
17.7 947
17.72 934
17.74 931
17.76 936
17.78 916
17.8 954
17.82 885
17.84 893
17.86 903
17.88 849
17.9 882
17.92 938
17.94 908
17.96 925
17.98 936
18 941
18.02 868
18.04 937
18.06 948
18.08 928
18.1 894
18.12 878
18.14 918
18.16 887
18.18 954
18.2 910
18.22 953
18.24 1011
18.26 922
18.28 990
18.3 994
18.32 935
18.34 1012
18.36 947
18.38 1026
18.4 966
18.42 958
18.44 978
18.46 952
18.48 975
18.5 957
18.52 931
18.54 938
18.56 929
18.58 923
18.6 978
18.62 966
18.64 980
18.66 975
18.68 921
18.7 920
18.72 953
18.74 950
18.76 948
18.78 973
18.8 974
18.82 988
18.84 951
18.86 988
18.88 990
18.9 940
18.92 974
18.94 1025
18.96 972
18.98 1012
19 984
19.02 1049
19.04 1025
19.06 944
19.08 990
19.1 969
19.12 1000
19.14 1008
19.16 966
19.18 1002
19.2 991
19.22 1009
19.24 1026
19.26 1000
19.28 1004
19.3 1062
19.32 999
19.34 1007
19.36 1018
19.38 1008
19.4 1020
19.42 1025
19.44 1024
19.46 1055
19.48 1059
19.5 1016
19.52 1023
19.54 1048
19.56 1052
19.58 1024
19.6 1100
19.62 1112
19.64 1096
19.66 1153
19.68 1125
19.7 1108
19.72 1192
19.74 1172
19.76 1260
19.78 1364
19.8 1371
19.82 1452
19.84 1609
19.86 1733
19.88 1618
19.9 1592
19.92 1463
19.94 1466
19.96 1394
19.98 1416
20 1372