File: xrd-UiO-67/pxrddata/8-20.ASC
3 2606
3.02 2325
3.04 2320
3.06 2158
3.08 2117
3.1 1868
3.12 2013
3.14 1907
3.16 1895
3.18 1855
3.2 1724
3.22 1803
3.24 1762
3.26 1733
3.28 1646
3.3 1627
3.32 1578
3.34 1555
3.36 1502
3.38 1510
3.4 1562
3.42 1534
3.44 1426
3.46 1404
3.48 1492
3.5 1509
3.52 1347
3.54 1351
3.56 1384
3.58 1340
3.6 1268
3.62 1280
3.64 1265
3.66 1240
3.68 1256
3.7 1174
3.72 1236
3.74 1170
3.76 1210
3.78 1113
3.8 1111
3.82 1102
3.84 1138
3.86 1167
3.88 1212
3.9 1052
3.92 1128
3.94 1076
3.96 1089
3.98 1136
4 1066
4.02 1120
4.04 1018
4.06 1062
4.08 1011
4.1 995
4.12 1003
4.14 1022
4.16 950
4.18 962
4.2 960
4.22 968
4.24 902
4.26 965
4.28 909
4.3 881
4.32 925
4.34 947
4.36 920
4.38 950
4.4 899
4.42 912
4.44 872
4.46 888
4.48 896
4.5 797
4.52 878
4.54 921
4.56 832
4.58 834
4.6 880
4.62 808
4.64 841
4.66 801
4.68 829
4.7 846
4.72 834
4.74 795
4.76 794
4.78 834
4.8 795
4.82 804
4.84 765
4.86 804
4.88 737
4.9 774
4.92 802
4.94 766
4.96 739
4.98 756
5 737
5.02 740
5.04 762
5.06 769
5.08 765
5.1 750
5.12 747
5.14 743
5.16 739
5.18 725
5.2 766
5.22 730
5.24 764
5.26 739
5.28 664
5.3 726
5.32 693
5.34 744
5.36 742
5.38 687
5.4 716
5.42 749
5.44 693
5.46 729
5.48 709
5.5 688
5.52 701
5.54 731
5.56 733
5.58 684
5.6 689
5.62 666
5.64 696
5.66 707
5.68 699
5.7 739
5.72 711
5.74 722
5.76 728
5.78 744
5.8 696
5.82 684
5.84 725
5.86 689
5.88 698
5.9 668
5.92 705
5.94 735
5.96 628
5.98 737
6 694
6.02 678
6.04 681
6.06 660
6.08 681
6.1 675
6.12 709
6.14 723
6.16 727
6.18 737
6.2 692
6.22 663
6.24 710
6.26 722
6.28 728
6.3 659
6.32 698
6.34 612
6.36 659
6.38 690
6.4 676
6.42 677
6.44 715
6.46 715
6.48 678
6.5 659
6.52 668
6.54 691
6.56 689
6.58 660
6.6 694
6.62 756
6.64 653
6.66 686
6.68 735
6.7 690
6.72 721
6.74 681
6.76 653
6.78 658
6.8 678
6.82 728
6.84 696
6.86 657
6.88 637
6.9 666
6.92 673
6.94 662
6.96 674
6.98 666
7 712
7.02 684
7.04 672
7.06 669
7.08 694
7.1 667
7.12 699
7.14 699
7.16 686
7.18 716
7.2 664
7.22 658
7.24 667
7.26 714
7.28 717
7.3 622
7.32 653
7.34 720
7.36 657
7.38 689
7.4 701
7.42 697
7.44 705
7.46 691
7.48 686
7.5 679
7.52 642
7.54 649
7.56 631
7.58 654
7.6 694
7.62 652
7.64 626
7.66 671
7.68 668
7.7 663
7.72 675
7.74 670
7.76 651
7.78 697
7.8 657
7.82 671
7.84 671
7.86 645
7.88 757
7.9 722
7.92 669
7.94 669
7.96 640
7.98 706
8 681
8.02 710
8.04 720
8.06 726
8.08 673
8.1 705
8.12 713
8.14 681
8.16 722
8.18 692
8.2 739
8.22 703
8.24 770
8.26 765
8.28 735
8.3 801
8.32 769
8.34 775
8.36 792
8.38 810
8.4 847
8.42 887
8.44 887
8.46 921
8.48 986
8.5 1053
8.52 966
8.54 1127
8.56 1124
8.58 1211
8.6 1228
8.62 1341
8.64 1305
8.66 1490
8.68 1582
8.7 1790
8.72 1924
8.74 2079
8.76 2357
8.78 2773
8.8 2947
8.82 2895
8.84 2467
8.86 2057
8.88 2025
8.9 1969
8.92 2224
8.94 2314
8.96 2564
8.98 2556
9 2167
9.02 1628
9.04 1203
9.06 1017
9.08 972
9.1 913
9.12 903
9.14 892
9.16 883
9.18 907
9.2 867
9.22 857
9.24 909
9.26 830
9.28 933
9.3 894
9.32 875
9.34 861
9.36 831
9.38 865
9.4 873
9.42 810
9.44 870
9.46 881
9.48 864
9.5 890
9.52 886
9.54 902
9.56 923
9.58 955
9.6 965
9.62 1030
9.64 1090
9.66 1140
9.68 1240
9.7 1207
9.72 1361
9.74 1469
9.76 1549
9.78 1720
9.8 1898
9.82 2148
9.84 2502
9.86 2721
9.88 3040
9.9 2812
9.92 2212
9.94 1755
9.96 1405
9.98 1158
10 1040
10.02 920
10.04 884
10.06 857
10.08 810
10.1 729
10.12 732
10.14 731
10.16 742
10.18 717
10.2 742
10.22 693
10.24 709
10.26 701
10.28 701
10.3 659
10.32 679
10.34 650
10.36 661
10.38 641
10.4 672
10.42 667
10.44 631
10.46 692
10.48 704
10.5 665
10.52 661
10.54 650
10.56 641
10.58 647
10.6 663
10.62 638
10.64 664
10.66 698
10.68 673
10.7 688
10.72 666
10.74 639
10.76 669
10.78 632
10.8 649
10.82 645
10.84 719
10.86 701
10.88 617
10.9 650
10.92 620
10.94 639
10.96 673
10.98 594
11 644
11.02 643
11.04 668
11.06 652
11.08 649
11.1 611
11.12 585
11.14 573
11.16 610
11.18 610
11.2 607
11.22 611
11.24 617
11.26 651
11.28 608
11.3 629
11.32 633
11.34 611
11.36 638
11.38 636
11.4 614
11.42 616
11.44 605
11.46 621
11.48 619
11.5 634
11.52 596
11.54 593
11.56 601
11.58 564
11.6 664
11.62 591
11.64 570
11.66 628
11.68 596
11.7 633
11.72 591
11.74 632
11.76 572
11.78 560
11.8 590
11.82 607
11.84 617
11.86 623
11.88 621
11.9 589
11.92 574
11.94 653
11.96 593
11.98 622
12 652
12.02 627
12.04 586
12.06 658
12.08 582
12.1 575
12.12 590
12.14 652
12.16 631
12.18 689
12.2 629
12.22 652
12.24 627
12.26 648
12.28 678
12.3 677
12.32 720
12.34 660
12.36 678
12.38 721
12.4 759
12.42 729
12.44 753
12.46 827
12.48 875
12.5 850
12.52 933
12.54 1040
12.56 1051
12.58 1062
12.6 933
12.62 878
12.64 820
12.66 820
12.68 801
12.7 736
12.72 763
12.74 771
12.76 656
12.78 675
12.8 661
12.82 641
12.84 671
12.86 680
12.88 666
12.9 686
12.92 654
12.94 673
12.96 682
12.98 678
13 657
13.02 662
13.04 702
13.06 683
13.08 762
13.1 734
13.12 751
13.14 777
13.16 798
13.18 830
13.2 914
13.22 936
13.24 1015
13.26 1027
13.28 1188
13.3 1300
13.32 1422
13.34 1495
13.36 1416
13.38 1268
13.4 1027
13.42 803
13.44 748
13.46 714
13.48 688
13.5 678
13.52 652
13.54 676
13.56 643
13.58 677
13.6 617
13.62 616
13.64 638
13.66 598
13.68 625
13.7 674
13.72 577
13.74 652
13.76 636
13.78 668
13.8 658
13.82 621
13.84 651
13.86 654
13.88 678
13.9 638
13.92 679
13.94 617
13.96 636
13.98 642
14 644
14.02 629
14.04 605
14.06 613
14.08 636
14.1 639
14.12 617
14.14 653
14.16 617
14.18 645
14.2 671
14.22 622
14.24 636
14.26 632
14.28 674
14.3 644
14.32 678
14.34 666
14.36 627
14.38 616
14.4 653
14.42 705
14.44 683
14.46 700
14.48 684
14.5 646
14.52 654
14.54 684
14.56 629
14.58 649
14.6 668
14.62 662
14.64 669
14.66 638
14.68 646
14.7 704
14.72 633
14.74 637
14.76 632
14.78 666
14.8 681
14.82 659
14.84 660
14.86 656
14.88 689
14.9 663
14.92 644
14.94 638
14.96 675
14.98 703
15 668
15.02 699
15.04 662
15.06 647
15.08 648
15.1 650
15.12 665
15.14 666
15.16 659
15.18 703
15.2 670
15.22 671
15.24 709
15.26 729
15.28 696
15.3 729
15.32 708
15.34 649
15.36 726
15.38 675
15.4 676
15.42 731
15.44 729
15.46 666
15.48 696
15.5 713
15.52 709
15.54 700
15.56 712
15.58 695
15.6 699
15.62 694
15.64 662
15.66 692
15.68 698
15.7 712
15.72 734
15.74 726
15.76 703
15.78 741
15.8 682
15.82 716
15.84 721
15.86 732
15.88 758
15.9 668
15.92 758
15.94 738
15.96 712
15.98 731
16 686
16.02 658
16.04 743
16.06 773
16.08 740
16.1 732
16.12 735
16.14 747
16.16 723
16.18 737
16.2 747
16.22 712
16.24 735
16.26 756
16.28 760
16.3 784
16.32 746
16.34 754
16.36 770
16.38 772
16.4 763
16.42 754
16.44 801
16.46 758
16.48 801
16.5 771
16.52 754
16.54 766
16.56 758
16.58 781
16.6 796
16.62 773
16.64 743
16.66 788
16.68 835
16.7 794
16.72 816
16.74 923
16.76 849
16.78 872
16.8 873
16.82 969
16.84 920
16.86 989
16.88 1083
16.9 1165
16.92 1337
16.94 1466
16.96 1571
16.98 1614
17 1565
17.02 1345
17.04 1138
17.06 981
17.08 883
17.1 815
17.12 897
17.14 797
17.16 876
17.18 807
17.2 820
17.22 833
17.24 870
17.26 800
17.28 791
17.3 828
17.32 840
17.34 840
17.36 895
17.38 890
17.4 806
17.42 884
17.44 851
17.46 830
17.48 889
17.5 855
17.52 845
17.54 880
17.56 931
17.58 882
17.6 942
17.62 891
17.64 948
17.66 907
17.68 938
17.7 927
17.72 932
17.74 916
17.76 913
17.78 896
17.8 949
17.82 921
17.84 896
17.86 921
17.88 945
17.9 938
17.92 1002
17.94 976
17.96 910
17.98 971
18 972
18.02 933
18.04 894
18.06 939
18.08 955
18.1 939
18.12 967
18.14 981
18.16 1013
18.18 958
18.2 986
18.22 972
18.24 1053
18.26 992
18.28 978
18.3 936
18.32 998
18.34 978
18.36 967
18.38 984
18.4 1030
18.42 991
18.44 919
18.46 985
18.48 965
18.5 944
18.52 999
18.54 935
18.56 978
18.58 1066
18.6 974
18.62 955
18.64 954
18.66 1032
18.68 979
18.7 968
18.72 995
18.74 970
18.76 1005
18.78 957
18.8 986
18.82 1012
18.84 969
18.86 988
18.88 997
18.9 1017
18.92 1041
18.94 987
18.96 1022
18.98 992
19 1012
19.02 977
19.04 1054
19.06 991
19.08 1007
19.1 1007
19.12 1000
19.14 1040
19.16 1040
19.18 1093
19.2 1033
19.22 1041
19.24 1055
19.26 1013
19.28 1022
19.3 1038
19.32 1107
19.34 1077
19.36 1053
19.38 1057
19.4 1018
19.42 968
19.44 1094
19.46 1009
19.48 1045
19.5 1072
19.52 1116
19.54 1103
19.56 1134
19.58 1087
19.6 1063
19.62 1211
19.64 1129
19.66 1154
19.68 1193
19.7 1233
19.72 1333
19.74 1456
19.76 1483
19.78 1502
19.8 1500
19.82 1538
19.84 1470
19.86 1398
19.88 1443
19.9 1440
19.92 1331
19.94 1393
19.96 1442
19.98 1446
20 1402