File: xrd-UiO-67/pxrddata/9-10.ASC
3 2244
3.02 2170
3.04 2004
3.06 1949
3.08 1825
3.1 1783
3.12 1667
3.14 1682
3.16 1684
3.18 1628
3.2 1645
3.22 1548
3.24 1610
3.26 1609
3.28 1572
3.3 1560
3.32 1510
3.34 1537
3.36 1527
3.38 1474
3.4 1492
3.42 1540
3.44 1364
3.46 1443
3.48 1483
3.5 1475
3.52 1420
3.54 1442
3.56 1367
3.58 1343
3.6 1362
3.62 1349
3.64 1335
3.66 1281
3.68 1277
3.7 1306
3.72 1312
3.74 1260
3.76 1262
3.78 1261
3.8 1232
3.82 1232
3.84 1222
3.86 1233
3.88 1256
3.9 1316
3.92 1250
3.94 1230
3.96 1232
3.98 1215
4 1140
4.02 1222
4.04 1178
4.06 1217
4.08 1140
4.1 1238
4.12 1201
4.14 1147
4.16 1120
4.18 1189
4.2 1158
4.22 1107
4.24 1130
4.26 1163
4.28 1136
4.3 1155
4.32 1123
4.34 1147
4.36 1099
4.38 1132
4.4 1110
4.42 1034
4.44 1079
4.46 1129
4.48 1068
4.5 1090
4.52 1084
4.54 1028
4.56 1092
4.58 1115
4.6 1011
4.62 1097
4.64 1078
4.66 1078
4.68 1069
4.7 1039
4.72 1040
4.74 1082
4.76 1057
4.78 1102
4.8 1038
4.82 1013
4.84 1038
4.86 1067
4.88 1068
4.9 980
4.92 1092
4.94 1065
4.96 1021
4.98 1066
5 1069
5.02 1055
5.04 1081
5.06 977
5.08 1015
5.1 1007
5.12 1012
5.14 1008
5.16 1034
5.18 1053
5.2 964
5.22 1040
5.24 1090
5.26 1010
5.28 1099
5.3 1131
5.32 1053
5.34 991
5.36 1028
5.38 1009
5.4 1011
5.42 1015
5.44 1065
5.46 1035
5.48 1059
5.5 1031
5.52 957
5.54 1103
5.56 1035
5.58 1030
5.6 1091
5.62 979
5.64 1037
5.66 1091
5.68 1004
5.7 1027
5.72 1028
5.74 1009
5.76 1072
5.78 1001
5.8 1105
5.82 1116
5.84 1043
5.86 1030
5.88 1011
5.9 1085
5.92 1045
5.94 1019
5.96 1072
5.98 975
6 1087
6.02 1053
6.04 1091
6.06 1024
6.08 1005
6.1 1020
6.12 1069
6.14 1021
6.16 995
6.18 1002
6.2 995
6.22 1023
6.24 1066
6.26 1064
6.28 1049
6.3 1019
6.32 1011
6.34 998
6.36 1066
6.38 1036
6.4 1098
6.42 1050
6.44 1051
6.46 1008
6.48 1081
6.5 1031
6.52 1032
6.54 1043
6.56 1093
6.58 1072
6.6 1015
6.62 1044
6.64 1053
6.66 1056
6.68 1015
6.7 1088
6.72 1059
6.74 1060
6.76 1055
6.78 1042
6.8 1020
6.82 1066
6.84 1052
6.86 1039
6.88 1074
6.9 1056
6.92 1005
6.94 968
6.96 1029
6.98 1052
7 1007
7.02 1054
7.04 1023
7.06 1091
7.08 1057
7.1 1075
7.12 1076
7.14 989
7.16 958
7.18 1034
7.2 998
7.22 1036
7.24 1030
7.26 1051
7.28 1030
7.3 1044
7.32 1019
7.34 1028
7.36 1048
7.38 1052
7.4 1055
7.42 1036
7.44 998
7.46 988
7.48 1069
7.5 1039
7.52 1056
7.54 1043
7.56 1059
7.58 980
7.6 1106
7.62 1048
7.64 1041
7.66 1061
7.68 1054
7.7 1035
7.72 1029
7.74 1002
7.76 998
7.78 1079
7.8 1036
7.82 1023
7.84 1048
7.86 1030
7.88 1036
7.9 987
7.92 1036
7.94 1028
7.96 1012
7.98 978
8 985
8.02 1013
8.04 1043
8.06 993
8.08 1023
8.1 1019
8.12 1021
8.14 992
8.16 1049
8.18 985
8.2 1026
8.22 992
8.24 939
8.26 984
8.28 990
8.3 981
8.32 984
8.34 965
8.36 1036
8.38 983
8.4 993
8.42 1000
8.44 951
8.46 974
8.48 973
8.5 933
8.52 979
8.54 1042
8.56 946
8.58 994
8.6 980
8.62 1005
8.64 950
8.66 966
8.68 918
8.7 961
8.72 1019
8.74 920
8.76 964
8.78 899
8.8 967
8.82 938
8.84 956
8.86 943
8.88 976
8.9 959
8.92 965
8.94 998
8.96 929
8.98 1011
9 948
9.02 959
9.04 945
9.06 946
9.08 923
9.1 895
9.12 923
9.14 915
9.16 909
9.18 956
9.2 942
9.22 891
9.24 966
9.26 951
9.28 942
9.3 904
9.32 905
9.34 901
9.36 944
9.38 924
9.4 905
9.42 929
9.44 886
9.46 879
9.48 910
9.5 854
9.52 870
9.54 843
9.56 917
9.58 856
9.6 886
9.62 877
9.64 862
9.66 872
9.68 895
9.7 885
9.72 892
9.74 816
9.76 861
9.78 863
9.8 890
9.82 842
9.84 849
9.86 863
9.88 834
9.9 889
9.92 845
9.94 863
9.96 860
9.98 840
10 846
10.02 849
10.04 859
10.06 818
10.08 892
10.1 853
10.12 861
10.14 832
10.16 810
10.18 801
10.2 856
10.22 831
10.24 875
10.26 831
10.28 847
10.3 771
10.32 843
10.34 857
10.36 861
10.38 874
10.4 827
10.42 814
10.44 802
10.46 809
10.48 801
10.5 828
10.52 823
10.54 816
10.56 780
10.58 799
10.6 832
10.62 844
10.64 827
10.66 807
10.68 772
10.7 778
10.72 845
10.74 865
10.76 816
10.78 755
10.8 824
10.82 774
10.84 740
10.86 806
10.88 780
10.9 845
10.92 825
10.94 843
10.96 769
10.98 803
11 791
11.02 792
11.04 738
11.06 794
11.08 774
11.1 722
11.12 759
11.14 732
11.16 776
11.18 822
11.2 792
11.22 773
11.24 747
11.26 766
11.28 793
11.3 784
11.32 760
11.34 766
11.36 749
11.38 775
11.4 764
11.42 735
11.44 752
11.46 725
11.48 717
11.5 774
11.52 728
11.54 751
11.56 789
11.58 766
11.6 781
11.62 743
11.64 784
11.66 817
11.68 763
11.7 798
11.72 722
11.74 776
11.76 685
11.78 731
11.8 752
11.82 705
11.84 771
11.86 755
11.88 741
11.9 762
11.92 763
11.94 743
11.96 761
11.98 752
12 721
12.02 751
12.04 773
12.06 775
12.08 783
12.1 735
12.12 757
12.14 755
12.16 731
12.18 738
12.2 764
12.22 728
12.24 729
12.26 726
12.28 768
12.3 703
12.32 723
12.34 756
12.36 794
12.38 745
12.4 739
12.42 781
12.44 760
12.46 763
12.48 753
12.5 817
12.52 731
12.54 785
12.56 787
12.58 745
12.6 755
12.62 756
12.64 803
12.66 753
12.68 729
12.7 809
12.72 799
12.74 785
12.76 786
12.78 790
12.8 791
12.82 731
12.84 709
12.86 733
12.88 799
12.9 742
12.92 820
12.94 807
12.96 765
12.98 756
13 732
13.02 790
13.04 763
13.06 778
13.08 779
13.1 785
13.12 726
13.14 787
13.16 742
13.18 766
13.2 807
13.22 802
13.24 819
13.26 782
13.28 845
13.3 886
13.32 837
13.34 781
13.36 758
13.38 803
13.4 773
13.42 729
13.44 802
13.46 779
13.48 801
13.5 805
13.52 814
13.54 779
13.56 809
13.58 811
13.6 784
13.62 788
13.64 763
13.66 794
13.68 807
13.7 826
13.72 744
13.74 789
13.76 772
13.78 819
13.8 778
13.82 762
13.84 814
13.86 824
13.88 791
13.9 805
13.92 813
13.94 864
13.96 798
13.98 804
14 799
14.02 850
14.04 764
14.06 827
14.08 819
14.1 817
14.12 822
14.14 823
14.16 858
14.18 830
14.2 807
14.22 801
14.24 814
14.26 830
14.28 869
14.3 866
14.32 868
14.34 830
14.36 817
14.38 800
14.4 835
14.42 863
14.44 813
14.46 841
14.48 860
14.5 867
14.52 823
14.54 830
14.56 815
14.58 813
14.6 845
14.62 830
14.64 826
14.66 872
14.68 870
14.7 850
14.72 844
14.74 902
14.76 878
14.78 891
14.8 898
14.82 907
14.84 914
14.86 836
14.88 847
14.9 854
14.92 873
14.94 885
14.96 927
14.98 892
15 863
15.02 896
15.04 874
15.06 881
15.08 886
15.1 882
15.12 891
15.14 944
15.16 935
15.18 950
15.2 948
15.22 907
15.24 952
15.26 934
15.28 877
15.3 937
15.32 931
15.34 909
15.36 940
15.38 948
15.4 941
15.42 926
15.44 943
15.46 924
15.48 942
15.5 947
15.52 972
15.54 984
15.56 976
15.58 982
15.6 932
15.62 928
15.64 1004
15.66 943
15.68 925
15.7 954
15.72 904
15.74 953
15.76 977
15.78 979
15.8 996
15.82 986
15.84 952
15.86 963
15.88 912
15.9 968
15.92 1000
15.94 975
15.96 976
15.98 1022
16 1034
16.02 1022
16.04 1037
16.06 1039
16.08 1015
16.1 1018
16.12 1001
16.14 951
16.16 1014
16.18 990
16.2 983
16.22 1048
16.24 1037
16.26 1074
16.28 1043
16.3 1040
16.32 1036
16.34 1082
16.36 1102
16.38 1065
16.4 1055
16.42 1068
16.44 1062
16.46 1066
16.48 1133
16.5 1063
16.52 1204
16.54 1081
16.56 1120
16.58 1200
16.6 1124
16.62 1212
16.64 1172
16.66 1235
16.68 1190
16.7 1274
16.72 1377
16.74 1337
16.76 1416
16.78 1508
16.8 1685
16.82 1807
16.84 2092
16.86 2322
16.88 2519
16.9 2559
16.92 2510
16.94 2574
16.96 2539
16.98 2791
17 3024
17.02 3229
17.04 2849
17.06 2389
17.08 1913
17.1 1535
17.12 1292
17.14 1244
17.16 1281
17.18 1285
17.2 1150
17.22 1286
17.24 1231
17.26 1197
17.28 1182
17.3 1248
17.32 1208
17.34 1175
17.36 1227
17.38 1242
17.4 1204
17.42 1198
17.44 1278
17.46 1282
17.48 1171
17.5 1238
17.52 1238
17.54 1300
17.56 1302
17.58 1173
17.6 1193
17.62 1178
17.64 1255
17.66 1257
17.68 1292
17.7 1263
17.72 1275
17.74 1261
17.76 1232
17.78 1283
17.8 1325
17.82 1373
17.84 1327
17.86 1311
17.88 1310
17.9 1255
17.92 1334
17.94 1280
17.96 1341
17.98 1297
18 1331
18.02 1298
18.04 1334
18.06 1323
18.08 1280
18.1 1290
18.12 1322
18.14 1381
18.16 1275
18.18 1325
18.2 1365
18.22 1380
18.24 1408
18.26 1380
18.28 1387
18.3 1369
18.32 1369
18.34 1423
18.36 1370
18.38 1399
18.4 1422
18.42 1349
18.44 1339
18.46 1397
18.48 1460
18.5 1364
18.52 1424
18.54 1406
18.56 1491
18.58 1402
18.6 1471
18.62 1396
18.64 1445
18.66 1365
18.68 1462
18.7 1444
18.72 1465
18.74 1384
18.76 1437
18.78 1474
18.8 1488
18.82 1486
18.84 1433
18.86 1489
18.88 1498
18.9 1442
18.92 1481
18.94 1438
18.96 1429
18.98 1412
19 1485
19.02 1579
19.04 1500
19.06 1468
19.08 1603
19.1 1497
19.12 1460
19.14 1509
19.16 1457
19.18 1506
19.2 1522
19.22 1539
19.24 1535
19.26 1486
19.28 1493
19.3 1524
19.32 1572
19.34 1480
19.36 1531
19.38 1520
19.4 1496
19.42 1497
19.44 1528
19.46 1542
19.48 1502
19.5 1538
19.52 1568
19.54 1561
19.56 1537
19.58 1602
19.6 1580
19.62 1542
19.64 1553
19.66 1583
19.68 1589
19.7 1579
19.72 1599
19.74 1537
19.76 1510
19.78 1645
19.8 1553
19.82 1589
19.84 1613
19.86 1601
19.88 1674
19.9 1600
19.92 1574
19.94 1606
19.96 1586
19.98 1579
20 1580