File: xrd-UiO-67/pxrddata/9-11.ASC
3 2049
3.02 1960
3.04 1725
3.06 1634
3.08 1509
3.1 1500
3.12 1420
3.14 1367
3.16 1363
3.18 1389
3.2 1367
3.22 1283
3.24 1340
3.26 1295
3.28 1270
3.3 1237
3.32 1275
3.34 1181
3.36 1197
3.38 1190
3.4 1180
3.42 1168
3.44 1181
3.46 1176
3.48 1094
3.5 1131
3.52 1060
3.54 1033
3.56 1125
3.58 1041
3.6 1025
3.62 1032
3.64 1069
3.66 1090
3.68 1016
3.7 1068
3.72 1014
3.74 960
3.76 999
3.78 981
3.8 991
3.82 993
3.84 952
3.86 911
3.88 991
3.9 950
3.92 969
3.94 965
3.96 943
3.98 886
4 927
4.02 881
4.04 903
4.06 870
4.08 924
4.1 825
4.12 876
4.14 879
4.16 841
4.18 870
4.2 811
4.22 825
4.24 841
4.26 795
4.28 766
4.3 793
4.32 864
4.34 795
4.36 818
4.38 820
4.4 782
4.42 813
4.44 720
4.46 799
4.48 740
4.5 822
4.52 791
4.54 759
4.56 778
4.58 762
4.6 722
4.62 774
4.64 718
4.66 742
4.68 704
4.7 719
4.72 746
4.74 689
4.76 718
4.78 802
4.8 748
4.82 724
4.84 755
4.86 724
4.88 690
4.9 718
4.92 662
4.94 767
4.96 736
4.98 717
5 701
5.02 705
5.04 728
5.06 706
5.08 763
5.1 725
5.12 730
5.14 698
5.16 693
5.18 699
5.2 718
5.22 694
5.24 706
5.26 680
5.28 743
5.3 751
5.32 700
5.34 679
5.36 698
5.38 655
5.4 717
5.42 714
5.44 746
5.46 711
5.48 683
5.5 696
5.52 711
5.54 646
5.56 710
5.58 752
5.6 713
5.62 741
5.64 716
5.66 696
5.68 670
5.7 711
5.72 718
5.74 718
5.76 732
5.78 692
5.8 676
5.82 806
5.84 766
5.86 710
5.88 805
5.9 754
5.92 769
5.94 768
5.96 763
5.98 743
6 783
6.02 740
6.04 756
6.06 776
6.08 751
6.1 772
6.12 806
6.14 818
6.16 863
6.18 832
6.2 865
6.22 884
6.24 881
6.26 872
6.28 907
6.3 927
6.32 942
6.34 922
6.36 959
6.38 958
6.4 1021
6.42 1033
6.44 1062
6.46 1047
6.48 1094
6.5 1141
6.52 1218
6.54 1216
6.56 1187
6.58 1191
6.6 1113
6.62 1154
6.64 1116
6.66 1113
6.68 1124
6.7 1163
6.72 1046
6.74 1066
6.76 1065
6.78 979
6.8 995
6.82 970
6.84 973
6.86 993
6.88 948
6.9 914
6.92 979
6.94 907
6.96 965
6.98 933
7 882
7.02 903
7.04 951
7.06 925
7.08 883
7.1 898
7.12 831
7.14 846
7.16 880
7.18 891
7.2 880
7.22 887
7.24 853
7.26 861
7.28 857
7.3 919
7.32 854
7.34 859
7.36 873
7.38 825
7.4 841
7.42 952
7.44 881
7.46 932
7.48 844
7.5 833
7.52 874
7.54 921
7.56 905
7.58 862
7.6 879
7.62 831
7.64 869
7.66 851
7.68 817
7.7 821
7.72 888
7.74 869
7.76 892
7.78 895
7.8 869
7.82 814
7.84 877
7.86 918
7.88 865
7.9 943
7.92 867
7.94 825
7.96 861
7.98 846
8 832
8.02 874
8.04 858
8.06 839
8.08 853
8.1 861
8.12 891
8.14 896
8.16 903
8.18 876
8.2 887
8.22 886
8.24 839
8.26 874
8.28 915
8.3 926
8.32 893
8.34 911
8.36 897
8.38 897
8.4 918
8.42 945
8.44 991
8.46 920
8.48 939
8.5 971
8.52 978
8.54 980
8.56 1021
8.58 1091
8.6 1057
8.62 1077
8.64 1086
8.66 1164
8.68 1195
8.7 1209
8.72 1246
8.74 1314
8.76 1328
8.78 1373
8.8 1448
8.82 1587
8.84 1689
8.86 1691
8.88 1916
8.9 2179
8.92 2402
8.94 2718
8.96 3037
8.98 3221
9 3318
9.02 2934
9.04 2615
9.06 2408
9.08 2155
9.1 1971
9.12 1891
9.14 1787
9.16 1738
9.18 1671
9.2 1607
9.22 1558
9.24 1546
9.26 1502
9.28 1486
9.3 1487
9.32 1504
9.34 1368
9.36 1364
9.38 1339
9.4 1404
9.42 1303
9.44 1266
9.46 1301
9.48 1248
9.5 1292
9.52 1267
9.54 1253
9.56 1263
9.58 1258
9.6 1246
9.62 1312
9.64 1259
9.66 1308
9.68 1242
9.7 1274
9.72 1278
9.74 1396
9.76 1321
9.78 1384
9.8 1373
9.82 1371
9.84 1431
9.86 1474
9.88 1462
9.9 1504
9.92 1553
9.94 1652
9.96 1602
9.98 1626
10 1548
10.02 1592
10.04 1599
10.06 1613
10.08 1581
10.1 1566
10.12 1459
10.14 1566
10.16 1488
10.18 1397
10.2 1359
10.22 1371
10.24 1437
10.26 1318
10.28 1349
10.3 1281
10.32 1286
10.34 1273
10.36 1229
10.38 1243
10.4 1307
10.42 1272
10.44 1287
10.46 1242
10.48 1165
10.5 1244
10.52 1247
10.54 1251
10.56 1245
10.58 1234
10.6 1274
10.62 1258
10.64 1263
10.66 1247
10.68 1302
10.7 1230
10.72 1272
10.74 1287
10.76 1273
10.78 1308
10.8 1309
10.82 1285
10.84 1337
10.86 1292
10.88 1310
10.9 1369
10.92 1365
10.94 1343
10.96 1347
10.98 1362
11 1344
11.02 1266
11.04 1280
11.06 1296
11.08 1246
11.1 1234
11.12 1127
11.14 1136
11.16 1114
11.18 1122
11.2 1041
11.22 1055
11.24 1016
11.26 962
11.28 953
11.3 962
11.32 967
11.34 923
11.36 930
11.38 893
11.4 899
11.42 895
11.44 901
11.46 821
11.48 826
11.5 841
11.52 846
11.54 825
11.56 760
11.58 786
11.6 834
11.62 842
11.64 804
11.66 792
11.68 778
11.7 788
11.72 797
11.74 790
11.76 781
11.78 798
11.8 763
11.82 764
11.84 761
11.86 797
11.88 770
11.9 788
11.92 796
11.94 793
11.96 796
11.98 799
12 763
12.02 757
12.04 735
12.06 829
12.08 772
12.1 783
12.12 786
12.14 816
12.16 789
12.18 759
12.2 859
12.22 793
12.24 786
12.26 781
12.28 822
12.3 827
12.32 774
12.34 791
12.36 851
12.38 875
12.4 915
12.42 973
12.44 865
12.46 897
12.48 952
12.5 980
12.52 1074
12.54 1149
12.56 1220
12.58 1375
12.6 1427
12.62 1582
12.64 1730
12.66 1770
12.68 1822
12.7 1718
12.72 1714
12.74 1477
12.76 1353
12.78 1212
12.8 1207
12.82 1097
12.84 1020
12.86 985
12.88 1019
12.9 971
12.92 987
12.94 935
12.96 966
12.98 948
13 904
13.02 954
13.04 865
13.06 921
13.08 879
13.1 913
13.12 916
13.14 879
13.16 932
13.18 900
13.2 851
13.22 893
13.24 840
13.26 845
13.28 834
13.3 887
13.32 847
13.34 897
13.36 852
13.38 862
13.4 851
13.42 890
13.44 799
13.46 892
13.48 903
13.5 894
13.52 833
13.54 837
13.56 856
13.58 870
13.6 809
13.62 878
13.64 845
13.66 800
13.68 844
13.7 859
13.72 879
13.74 844
13.76 839
13.78 820
13.8 819
13.82 849
13.84 865
13.86 870
13.88 825
13.9 851
13.92 880
13.94 822
13.96 843
13.98 860
14 900
14.02 857
14.04 873
14.06 886
14.08 880
14.1 867
14.12 844
14.14 885
14.16 888
14.18 850
14.2 951
14.22 882
14.24 867
14.26 861
14.28 921
14.3 905
14.32 919
14.34 860
14.36 879
14.38 863
14.4 890
14.42 896
14.44 867
14.46 873
14.48 887
14.5 909
14.52 894
14.54 874
14.56 889
14.58 921
14.6 855
14.62 869
14.64 909
14.66 794
14.68 896
14.7 864
14.72 799
14.74 855
14.76 846
14.78 838
14.8 819
14.82 833
14.84 812
14.86 876
14.88 902
14.9 864
14.92 869
14.94 879
14.96 886
14.98 858
15 840
15.02 917
15.04 879
15.06 864
15.08 893
15.1 870
15.12 886
15.14 835
15.16 893
15.18 849
15.2 854
15.22 865
15.24 866
15.26 894
15.28 891
15.3 843
15.32 877
15.34 876
15.36 905
15.38 860
15.4 866
15.42 865
15.44 890
15.46 845
15.48 894
15.5 872
15.52 876
15.54 878
15.56 880
15.58 929
15.6 852
15.62 860
15.64 905
15.66 834
15.68 884
15.7 933
15.72 899
15.74 885
15.76 938
15.78 863
15.8 887
15.82 953
15.84 877
15.86 874
15.88 854
15.9 894
15.92 923
15.94 874
15.96 949
15.98 893
16 902
16.02 882
16.04 903
16.06 935
16.08 946
16.1 959
16.12 915
16.14 834
16.16 933
16.18 913
16.2 945
16.22 897
16.24 969
16.26 993
16.28 905
16.3 955
16.32 936
16.34 963
16.36 973
16.38 993
16.4 919
16.42 949
16.44 950
16.46 1000
16.48 1011
16.5 931
16.52 975
16.54 964
16.56 1021
16.58 960
16.6 985
16.62 943
16.64 969
16.66 962
16.68 978
16.7 1044
16.72 1034
16.74 983
16.76 1019
16.78 1016
16.8 1047
16.82 1075
16.84 1077
16.86 1162
16.88 1214
16.9 1281
16.92 1358
16.94 1442
16.96 1560
16.98 1703
17 1910
17.02 2083
17.04 2201
17.06 2136
17.08 1928
17.1 1675
17.12 1454
17.14 1256
17.16 1206
17.18 1154
17.2 1096
17.22 1142
17.24 1113
17.26 1052
17.28 1066
17.3 1039
17.32 1039
17.34 1060
17.36 1048
17.38 1082
17.4 1055
17.42 1106
17.44 1084
17.46 1087
17.48 1142
17.5 1065
17.52 1128
17.54 1068
17.56 1017
17.58 1085
17.6 1093
17.62 1144
17.64 1038
17.66 1092
17.68 1155
17.7 1100
17.72 1153
17.74 1107
17.76 1118
17.78 1148
17.8 1155
17.82 1160
17.84 1204
17.86 1195
17.88 1253
17.9 1195
17.92 1200
17.94 1214
17.96 1140
17.98 1202
18 1181
18.02 1173
18.04 1198
18.06 1173
18.08 1185
18.1 1214
18.12 1189
18.14 1254
18.16 1220
18.18 1200
18.2 1241
18.22 1247
18.24 1268
18.26 1216
18.28 1192
18.3 1290
18.32 1226
18.34 1270
18.36 1300
18.38 1334
18.4 1291
18.42 1283
18.44 1330
18.46 1286
18.48 1252
18.5 1368
18.52 1304
18.54 1391
18.56 1277
18.58 1351
18.6 1313
18.62 1343
18.64 1316
18.66 1329
18.68 1311
18.7 1347
18.72 1323
18.74 1342
18.76 1334
18.78 1329
18.8 1350
18.82 1323
18.84 1358
18.86 1372
18.88 1442
18.9 1445
18.92 1468
18.94 1473
18.96 1465
18.98 1422
19 1447
19.02 1395
19.04 1456
19.06 1420
19.08 1433
19.1 1456
19.12 1457
19.14 1427
19.16 1518
19.18 1505
19.2 1487
19.22 1465
19.24 1486
19.26 1411
19.28 1428
19.3 1430
19.32 1439
19.34 1467
19.36 1487
19.38 1522
19.4 1484
19.42 1491
19.44 1414
19.46 1534
19.48 1481
19.5 1538
19.52 1508
19.54 1478
19.56 1414
19.58 1499
19.6 1554
19.62 1557
19.64 1551
19.66 1508
19.68 1560
19.7 1538
19.72 1578
19.74 1495
19.76 1587
19.78 1525
19.8 1516
19.82 1582
19.84 1508
19.86 1524
19.88 1554
19.9 1605
19.92 1587
19.94 1637
19.96 1540
19.98 1661
20 1646