File: xrd-UiO-67/pxrddata/9-12.ASC
3 2257
3.02 2081
3.04 1911
3.06 1821
3.08 1748
3.1 1708
3.12 1623
3.14 1614
3.16 1575
3.18 1602
3.2 1592
3.22 1529
3.24 1502
3.26 1445
3.28 1441
3.3 1337
3.32 1333
3.34 1328
3.36 1334
3.38 1335
3.4 1312
3.42 1253
3.44 1258
3.46 1235
3.48 1186
3.5 1239
3.52 1211
3.54 1210
3.56 1122
3.58 1117
3.6 1150
3.62 1161
3.64 1113
3.66 1135
3.68 1093
3.7 1084
3.72 1097
3.74 1076
3.76 1048
3.78 1024
3.8 981
3.82 980
3.84 1016
3.86 940
3.88 951
3.9 966
3.92 985
3.94 972
3.96 945
3.98 946
4 869
4.02 915
4.04 884
4.06 892
4.08 838
4.1 863
4.12 895
4.14 816
4.16 796
4.18 855
4.2 796
4.22 826
4.24 850
4.26 798
4.28 810
4.3 829
4.32 803
4.34 802
4.36 761
4.38 746
4.4 770
4.42 762
4.44 794
4.46 760
4.48 757
4.5 737
4.52 769
4.54 732
4.56 732
4.58 733
4.6 704
4.62 716
4.64 689
4.66 671
4.68 681
4.7 704
4.72 645
4.74 666
4.76 669
4.78 715
4.8 730
4.82 684
4.84 643
4.86 657
4.88 642
4.9 680
4.92 631
4.94 680
4.96 609
4.98 638
5 685
5.02 638
5.04 647
5.06 661
5.08 614
5.1 594
5.12 618
5.14 671
5.16 619
5.18 595
5.2 640
5.22 635
5.24 656
5.26 630
5.28 630
5.3 585
5.32 596
5.34 651
5.36 604
5.38 619
5.4 625
5.42 682
5.44 594
5.46 617
5.48 608
5.5 601
5.52 614
5.54 596
5.56 612
5.58 602
5.6 584
5.62 572
5.64 609
5.66 585
5.68 608
5.7 616
5.72 636
5.74 604
5.76 654
5.78 645
5.8 601
5.82 624
5.84 599
5.86 597
5.88 592
5.9 593
5.92 589
5.94 612
5.96 616
5.98 627
6 585
6.02 581
6.04 580
6.06 623
6.08 559
6.1 622
6.12 612
6.14 593
6.16 629
6.18 591
6.2 593
6.22 601
6.24 573
6.26 591
6.28 598
6.3 613
6.32 578
6.34 594
6.36 575
6.38 583
6.4 612
6.42 632
6.44 567
6.46 614
6.48 567
6.5 605
6.52 583
6.54 575
6.56 551
6.58 573
6.6 623
6.62 566
6.64 561
6.66 628
6.68 586
6.7 547
6.72 593
6.74 570
6.76 590
6.78 578
6.8 590
6.82 598
6.84 601
6.86 568
6.88 605
6.9 568
6.92 534
6.94 617
6.96 555
6.98 563
7 554
7.02 579
7.04 591
7.06 553
7.08 553
7.1 610
7.12 525
7.14 518
7.16 601
7.18 588
7.2 579
7.22 565
7.24 556
7.26 597
7.28 605
7.3 573
7.32 591
7.34 582
7.36 563
7.38 613
7.4 578
7.42 574
7.44 623
7.46 626
7.48 564
7.5 597
7.52 575
7.54 541
7.56 570
7.58 571
7.6 604
7.62 597
7.64 556
7.66 599
7.68 593
7.7 585
7.72 580
7.74 546
7.76 554
7.78 584
7.8 558
7.82 555
7.84 575
7.86 603
7.88 564
7.9 582
7.92 552
7.94 560
7.96 568
7.98 584
8 554
8.02 575
8.04 586
8.06 564
8.08 571
8.1 549
8.12 612
8.14 555
8.16 551
8.18 578
8.2 574
8.22 572
8.24 590
8.26 553
8.28 597
8.3 563
8.32 558
8.34 615
8.36 627
8.38 587
8.4 616
8.42 613
8.44 631
8.46 632
8.48 565
8.5 610
8.52 595
8.54 633
8.56 624
8.58 648
8.6 648
8.62 652
8.64 721
8.66 707
8.68 732
8.7 822
8.72 868
8.74 846
8.76 909
8.78 965
8.8 996
8.82 1046
8.84 1023
8.86 1065
8.88 1012
8.9 1077
8.92 1082
8.94 1080
8.96 1165
8.98 1172
9 1137
9.02 1146
9.04 1044
9.06 997
9.08 914
9.1 898
9.12 857
9.14 802
9.16 758
9.18 704
9.2 697
9.22 706
9.24 737
9.26 724
9.28 714
9.3 726
9.32 733
9.34 728
9.36 719
9.38 675
9.4 704
9.42 711
9.44 665
9.46 642
9.48 658
9.5 670
9.52 658
9.54 639
9.56 615
9.58 678
9.6 633
9.62 679
9.64 698
9.66 729
9.68 700
9.7 696
9.72 676
9.74 748
9.76 790
9.78 786
9.8 877
9.82 914
9.84 896
9.86 968
9.88 1005
9.9 1082
9.92 1134
9.94 1144
9.96 1074
9.98 1064
10 1010
10.02 919
10.04 818
10.06 772
10.08 733
10.1 709
10.12 671
10.14 647
10.16 652
10.18 610
10.2 603
10.22 566
10.24 614
10.26 649
10.28 559
10.3 555
10.32 589
10.34 590
10.36 577
10.38 565
10.4 583
10.42 584
10.44 600
10.46 559
10.48 530
10.5 532
10.52 530
10.54 539
10.56 555
10.58 522
10.6 565
10.62 586
10.64 564
10.66 548
10.68 519
10.7 550
10.72 547
10.74 570
10.76 526
10.78 520
10.8 577
10.82 521
10.84 512
10.86 571
10.88 573
10.9 584
10.92 589
10.94 570
10.96 551
10.98 556
11 578
11.02 569
11.04 556
11.06 513
11.08 510
11.1 515
11.12 545
11.14 544
11.16 549
11.18 514
11.2 505
11.22 536
11.24 539
11.26 528
11.28 530
11.3 499
11.32 534
11.34 514
11.36 508
11.38 508
11.4 518
11.42 540
11.44 534
11.46 486
11.48 521
11.5 538
11.52 501
11.54 534
11.56 508
11.58 560
11.6 499
11.62 506
11.64 570
11.66 508
11.68 523
11.7 528
11.72 516
11.74 486
11.76 521
11.78 510
11.8 540
11.82 530
11.84 534
11.86 555
11.88 532
11.9 545
11.92 530
11.94 515
11.96 540
11.98 514
12 518
12.02 479
12.04 519
12.06 513
12.08 526
12.1 536
12.12 498
12.14 503
12.16 505
12.18 509
12.2 497
12.22 552
12.24 557
12.26 536
12.28 559
12.3 527
12.32 554
12.34 557
12.36 531
12.38 530
12.4 542
12.42 519
12.44 516
12.46 552
12.48 571
12.5 623
12.52 577
12.54 604
12.56 615
12.58 639
12.6 659
12.62 650
12.64 627
12.66 645
12.68 721
12.7 669
12.72 650
12.74 606
12.76 595
12.78 648
12.8 540
12.82 568
12.84 575
12.86 609
12.88 531
12.9 547
12.92 505
12.94 531
12.96 493
12.98 561
13 552
13.02 578
13.04 537
13.06 565
13.08 557
13.1 589
13.12 605
13.14 583
13.16 518
13.18 595
13.2 567
13.22 592
13.24 614
13.26 617
13.28 606
13.3 669
13.32 659
13.34 645
13.36 675
13.38 666
13.4 603
13.42 625
13.44 629
13.46 572
13.48 551
13.5 546
13.52 586
13.54 559
13.56 550
13.58 536
13.6 560
13.62 556
13.64 553
13.66 499
13.68 559
13.7 541
13.72 543
13.74 556
13.76 561
13.78 501
13.8 540
13.82 539
13.84 533
13.86 521
13.88 538
13.9 539
13.92 516
13.94 549
13.96 572
13.98 506
14 561
14.02 527
14.04 516
14.06 543
14.08 515
14.1 553
14.12 540
14.14 600
14.16 551
14.18 548
14.2 556
14.22 494
14.24 561
14.26 531
14.28 535
14.3 521
14.32 556
14.34 526
14.36 560
14.38 558
14.4 574
14.42 530
14.44 572
14.46 609
14.48 604
14.5 530
14.52 559
14.54 558
14.56 546
14.58 554
14.6 548
14.62 533
14.64 541
14.66 600
14.68 527
14.7 576
14.72 551
14.74 552
14.76 558
14.78 567
14.8 566
14.82 571
14.84 562
14.86 544
14.88 572
14.9 546
14.92 557
14.94 500
14.96 545
14.98 516
15 560
15.02 569
15.04 605
15.06 559
15.08 563
15.1 553
15.12 602
15.14 557
15.16 559
15.18 549
15.2 539
15.22 586
15.24 581
15.26 585
15.28 565
15.3 609
15.32 594
15.34 586
15.36 545
15.38 614
15.4 582
15.42 612
15.44 584
15.46 620
15.48 575
15.5 544
15.52 545
15.54 595
15.56 588
15.58 560
15.6 614
15.62 633
15.64 591
15.66 576
15.68 594
15.7 633
15.72 598
15.74 547
15.76 624
15.78 583
15.8 561
15.82 592
15.84 639
15.86 607
15.88 639
15.9 576
15.92 621
15.94 614
15.96 565
15.98 616
16 647
16.02 627
16.04 609
16.06 629
16.08 647
16.1 637
16.12 613
16.14 610
16.16 642
16.18 628
16.2 598
16.22 634
16.24 644
16.26 644
16.28 642
16.3 628
16.32 638
16.34 602
16.36 631
16.38 630
16.4 609
16.42 656
16.44 571
16.46 643
16.48 637
16.5 630
16.52 646
16.54 667
16.56 626
16.58 653
16.6 655
16.62 675
16.64 690
16.66 657
16.68 684
16.7 665
16.72 729
16.74 699
16.76 732
16.78 706
16.8 739
16.82 767
16.84 799
16.86 873
16.88 1001
16.9 1051
16.92 1134
16.94 1258
16.96 1408
16.98 1522
17 1643
17.02 1731
17.04 1651
17.06 1448
17.08 1326
17.1 1141
17.12 1046
17.14 886
17.16 846
17.18 761
17.2 720
17.22 691
17.24 701
17.26 721
17.28 740
17.3 711
17.32 708
17.34 702
17.36 754
17.38 717
17.4 763
17.42 728
17.44 690
17.46 694
17.48 668
17.5 727
17.52 710
17.54 737
17.56 665
17.58 723
17.6 741
17.62 723
17.64 720
17.66 726
17.68 734
17.7 670
17.72 729
17.74 775
17.76 756
17.78 740
17.8 775
17.82 782
17.84 774
17.86 781
17.88 747
17.9 734
17.92 764
17.94 763
17.96 771
17.98 785
18 761
18.02 759
18.04 720
18.06 777
18.08 753
18.1 776
18.12 759
18.14 756
18.16 771
18.18 754
18.2 752
18.22 781
18.24 754
18.26 841
18.28 741
18.3 757
18.32 785
18.34 752
18.36 783
18.38 762
18.4 820
18.42 812
18.44 840
18.46 789
18.48 765
18.5 821
18.52 796
18.54 830
18.56 770
18.58 793
18.6 831
18.62 812
18.64 818
18.66 813
18.68 810
18.7 829
18.72 829
18.74 846
18.76 811
18.78 892
18.8 818
18.82 790
18.84 789
18.86 782
18.88 822
18.9 799
18.92 832
18.94 821
18.96 841
18.98 848
19 845
19.02 784
19.04 832
19.06 880
19.08 857
19.1 856
19.12 808
19.14 822
19.16 856
19.18 801
19.2 821
19.22 826
19.24 862
19.26 839
19.28 855
19.3 914
19.32 858
19.34 863
19.36 883
19.38 880
19.4 851
19.42 860
19.44 962
19.46 858
19.48 818
19.5 880
19.52 872
19.54 839
19.56 940
19.58 919
19.6 915
19.62 928
19.64 846
19.66 942
19.68 902
19.7 895
19.72 903
19.74 975
19.76 923
19.78 960
19.8 970
19.82 1010
19.84 1015
19.86 1032
19.88 1098
19.9 1034
19.92 989
19.94 1034
19.96 1024
19.98 1027
20 968