File: xrd-UiO-67/pxrddata/9-16.ASC
3 2075
3.02 1935
3.04 1719
3.06 1596
3.08 1621
3.1 1579
3.12 1470
3.14 1422
3.16 1450
3.18 1361
3.2 1339
3.22 1325
3.24 1372
3.26 1246
3.28 1310
3.3 1285
3.32 1270
3.34 1239
3.36 1219
3.38 1173
3.4 1243
3.42 1156
3.44 1199
3.46 1162
3.48 1219
3.5 1110
3.52 1155
3.54 1100
3.56 1068
3.58 1074
3.6 1098
3.62 1103
3.64 1041
3.66 1058
3.68 1028
3.7 1003
3.72 1012
3.74 1031
3.76 1034
3.78 993
3.8 971
3.82 955
3.84 1001
3.86 951
3.88 904
3.9 934
3.92 869
3.94 923
3.96 936
3.98 850
4 946
4.02 905
4.04 886
4.06 902
4.08 870
4.1 860
4.12 848
4.14 861
4.16 819
4.18 882
4.2 820
4.22 786
4.24 820
4.26 768
4.28 764
4.3 803
4.32 794
4.34 792
4.36 784
4.38 733
4.4 769
4.42 761
4.44 761
4.46 741
4.48 791
4.5 689
4.52 770
4.54 732
4.56 700
4.58 782
4.6 688
4.62 670
4.64 697
4.66 685
4.68 712
4.7 703
4.72 699
4.74 719
4.76 725
4.78 705
4.8 673
4.82 648
4.84 654
4.86 640
4.88 655
4.9 648
4.92 692
4.94 659
4.96 657
4.98 659
5 667
5.02 692
5.04 658
5.06 672
5.08 642
5.1 671
5.12 615
5.14 618
5.16 630
5.18 628
5.2 634
5.22 612
5.24 626
5.26 673
5.28 657
5.3 608
5.32 627
5.34 610
5.36 610
5.38 629
5.4 630
5.42 610
5.44 563
5.46 626
5.48 576
5.5 592
5.52 607
5.54 644
5.56 612
5.58 605
5.6 591
5.62 608
5.64 599
5.66 615
5.68 628
5.7 602
5.72 619
5.74 613
5.76 636
5.78 596
5.8 580
5.82 621
5.84 612
5.86 583
5.88 585
5.9 586
5.92 600
5.94 617
5.96 602
5.98 597
6 610
6.02 569
6.04 597
6.06 612
6.08 587
6.1 615
6.12 573
6.14 532
6.16 620
6.18 624
6.2 605
6.22 604
6.24 575
6.26 591
6.28 589
6.3 581
6.32 605
6.34 544
6.36 586
6.38 580
6.4 631
6.42 547
6.44 543
6.46 553
6.48 598
6.5 596
6.52 579
6.54 571
6.56 583
6.58 600
6.6 540
6.62 576
6.64 582
6.66 585
6.68 578
6.7 568
6.72 587
6.74 609
6.76 607
6.78 580
6.8 650
6.82 644
6.84 585
6.86 559
6.88 567
6.9 553
6.92 615
6.94 544
6.96 605
6.98 594
7 553
7.02 567
7.04 546
7.06 562
7.08 598
7.1 601
7.12 535
7.14 533
7.16 546
7.18 590
7.2 607
7.22 584
7.24 583
7.26 601
7.28 597
7.3 604
7.32 592
7.34 569
7.36 580
7.38 622
7.4 586
7.42 546
7.44 561
7.46 574
7.48 559
7.5 554
7.52 589
7.54 556
7.56 585
7.58 565
7.6 600
7.62 549
7.64 546
7.66 592
7.68 585
7.7 561
7.72 600
7.74 594
7.76 571
7.78 522
7.8 547
7.82 563
7.84 514
7.86 561
7.88 558
7.9 582
7.92 624
7.94 577
7.96 621
7.98 561
8 572
8.02 577
8.04 572
8.06 595
8.08 582
8.1 552
8.12 614
8.14 566
8.16 575
8.18 588
8.2 572
8.22 553
8.24 534
8.26 559
8.28 607
8.3 556
8.32 615
8.34 583
8.36 610
8.38 589
8.4 577
8.42 562
8.44 597
8.46 629
8.48 618
8.5 600
8.52 574
8.54 609
8.56 637
8.58 621
8.6 634
8.62 671
8.64 668
8.66 670
8.68 727
8.7 727
8.72 755
8.74 791
8.76 814
8.78 825
8.8 891
8.82 921
8.84 1026
8.86 1022
8.88 1143
8.9 1173
8.92 1296
8.94 1385
8.96 1439
8.98 1517
9 1530
9.02 1572
9.04 1600
9.06 1555
9.08 1560
9.1 1484
9.12 1371
9.14 1242
9.16 1173
9.18 1027
9.2 975
9.22 826
9.24 793
9.26 795
9.28 730
9.3 772
9.32 758
9.34 699
9.36 668
9.38 665
9.4 623
9.42 625
9.44 679
9.46 666
9.48 625
9.5 639
9.52 698
9.54 658
9.56 650
9.58 673
9.6 653
9.62 695
9.64 679
9.66 716
9.68 730
9.7 679
9.72 770
9.74 772
9.76 786
9.78 815
9.8 797
9.82 866
9.84 860
9.86 921
9.88 986
9.9 1079
9.92 1164
9.94 1232
9.96 1210
9.98 1256
10 1321
10.02 1324
10.04 1293
10.06 1247
10.08 1176
10.1 1079
10.12 954
10.14 901
10.16 744
10.18 733
10.2 661
10.22 629
10.24 635
10.26 623
10.28 634
10.3 592
10.32 593
10.34 627
10.36 607
10.38 543
10.4 595
10.42 611
10.44 550
10.46 579
10.48 573
10.5 545
10.52 543
10.54 536
10.56 550
10.58 566
10.6 567
10.62 515
10.64 545
10.66 576
10.68 553
10.7 529
10.72 517
10.74 506
10.76 508
10.78 533
10.8 516
10.82 530
10.84 502
10.86 523
10.88 558
10.9 524
10.92 520
10.94 498
10.96 532
10.98 541
11 547
11.02 498
11.04 536
11.06 541
11.08 514
11.1 531
11.12 511
11.14 494
11.16 499
11.18 499
11.2 496
11.22 509
11.24 540
11.26 529
11.28 495
11.3 499
11.32 512
11.34 511
11.36 530
11.38 515
11.4 490
11.42 515
11.44 473
11.46 494
11.48 485
11.5 496
11.52 480
11.54 530
11.56 478
11.58 492
11.6 498
11.62 475
11.64 460
11.66 516
11.68 490
11.7 477
11.72 495
11.74 475
11.76 509
11.78 514
11.8 498
11.82 527
11.84 482
11.86 441
11.88 503
11.9 474
11.92 510
11.94 497
11.96 517
11.98 482
12 475
12.02 488
12.04 501
12.06 520
12.08 528
12.1 527
12.12 467
12.14 486
12.16 507
12.18 486
12.2 520
12.22 460
12.24 462
12.26 468
12.28 508
12.3 477
12.32 497
12.34 509
12.36 489
12.38 505
12.4 497
12.42 548
12.44 544
12.46 524
12.48 568
12.5 567
12.52 527
12.54 529
12.56 583
12.58 623
12.6 625
12.62 622
12.64 576
12.66 601
12.68 606
12.7 660
12.72 691
12.74 631
12.76 594
12.78 602
12.8 612
12.82 586
12.84 562
12.86 553
12.88 550
12.9 556
12.92 543
12.94 504
12.96 521
12.98 544
13 559
13.02 579
13.04 508
13.06 539
13.08 552
13.1 534
13.12 518
13.14 539
13.16 507
13.18 532
13.2 541
13.22 539
13.24 561
13.26 559
13.28 545
13.3 608
13.32 591
13.34 590
13.36 601
13.38 624
13.4 652
13.42 602
13.44 632
13.46 552
13.48 591
13.5 574
13.52 572
13.54 581
13.56 484
13.58 555
13.6 492
13.62 507
13.64 500
13.66 569
13.68 494
13.7 511
13.72 546
13.74 497
13.76 569
13.78 529
13.8 519
13.82 523
13.84 517
13.86 557
13.88 513
13.9 488
13.92 536
13.94 464
13.96 511
13.98 497
14 499
14.02 518
14.04 496
14.06 507
14.08 540
14.1 486
14.12 528
14.14 497
14.16 534
14.18 525
14.2 551
14.22 490
14.24 525
14.26 510
14.28 496
14.3 548
14.32 504
14.34 531
14.36 489
14.38 492
14.4 521
14.42 508
14.44 539
14.46 520
14.48 539
14.5 518
14.52 490
14.54 531
14.56 502
14.58 530
14.6 495
14.62 527
14.64 551
14.66 530
14.68 522
14.7 521
14.72 504
14.74 530
14.76 538
14.78 542
14.8 516
14.82 509
14.84 526
14.86 532
14.88 535
14.9 555
14.92 537
14.94 535
14.96 510
14.98 525
15 516
15.02 539
15.04 521
15.06 533
15.08 509
15.1 525
15.12 555
15.14 528
15.16 550
15.18 524
15.2 539
15.22 578
15.24 551
15.26 525
15.28 558
15.3 516
15.32 561
15.34 517
15.36 560
15.38 582
15.4 518
15.42 544
15.44 568
15.46 573
15.48 545
15.5 575
15.52 564
15.54 571
15.56 561
15.58 577
15.6 571
15.62 534
15.64 578
15.66 506
15.68 586
15.7 559
15.72 545
15.74 510
15.76 559
15.78 547
15.8 543
15.82 555
15.84 560
15.86 524
15.88 557
15.9 516
15.92 555
15.94 610
15.96 547
15.98 554
16 549
16.02 550
16.04 587
16.06 605
16.08 539
16.1 599
16.12 593
16.14 579
16.16 584
16.18 563
16.2 563
16.22 599
16.24 554
16.26 548
16.28 567
16.3 572
16.32 575
16.34 587
16.36 583
16.38 600
16.4 569
16.42 596
16.44 622
16.46 605
16.48 567
16.5 596
16.52 602
16.54 614
16.56 629
16.58 615
16.6 626
16.62 639
16.64 647
16.66 642
16.68 661
16.7 630
16.72 685
16.74 632
16.76 672
16.78 703
16.8 730
16.82 776
16.84 804
16.86 858
16.88 876
16.9 914
16.92 1057
16.94 1087
16.96 1202
16.98 1348
17 1419
17.02 1581
17.04 1620
17.06 1648
17.08 1745
17.1 1802
17.12 1727
17.14 1599
17.16 1484
17.18 1247
17.2 1028
17.22 891
17.24 780
17.26 712
17.28 730
17.3 711
17.32 721
17.34 732
17.36 702
17.38 697
17.4 714
17.42 739
17.44 773
17.46 741
17.48 695
17.5 629
17.52 686
17.54 684
17.56 655
17.58 688
17.6 696
17.62 717
17.64 687
17.66 672
17.68 708
17.7 680
17.72 699
17.74 701
17.76 680
17.78 709
17.8 667
17.82 662
17.84 671
17.86 636
17.88 701
17.9 722
17.92 675
17.94 670
17.96 662
17.98 723
18 674
18.02 667
18.04 637
18.06 698
18.08 663
18.1 719
18.12 721
18.14 696
18.16 675
18.18 708
18.2 712
18.22 713
18.24 717
18.26 698
18.28 693
18.3 689
18.32 721
18.34 770
18.36 678
18.38 709
18.4 704
18.42 714
18.44 748
18.46 756
18.48 710
18.5 739
18.52 708
18.54 699
18.56 757
18.58 791
18.6 733
18.62 657
18.64 701
18.66 697
18.68 713
18.7 708
18.72 732
18.74 721
18.76 720
18.78 702
18.8 759
18.82 779
18.84 742
18.86 743
18.88 752
18.9 737
18.92 798
18.94 715
18.96 756
18.98 688
19 746
19.02 744
19.04 729
19.06 736
19.08 730
19.1 773
19.12 740
19.14 709
19.16 767
19.18 743
19.2 782
19.22 746
19.24 772
19.26 771
19.28 751
19.3 755
19.32 829
19.34 709
19.36 777
19.38 809
19.4 801
19.42 818
19.44 791
19.46 764
19.48 811
19.5 820
19.52 761
19.54 783
19.56 799
19.58 799
19.6 748
19.62 798
19.64 828
19.66 777
19.68 845
19.7 834
19.72 813
19.74 823
19.76 853
19.78 761
19.8 858
19.82 821
19.84 872
19.86 869
19.88 921
19.9 934
19.92 922
19.94 923
19.96 943
19.98 967
20 998