File: xrd-UiO-67/pxrddata/9-18.ASC
3 2506
3.02 2417
3.04 2107
3.06 2169
3.08 2002
3.1 1938
3.12 1872
3.14 1793
3.16 1663
3.18 1694
3.2 1678
3.22 1640
3.24 1583
3.26 1566
3.28 1542
3.3 1533
3.32 1569
3.34 1526
3.36 1479
3.38 1452
3.4 1368
3.42 1338
3.44 1305
3.46 1318
3.48 1350
3.5 1357
3.52 1305
3.54 1250
3.56 1323
3.58 1223
3.6 1292
3.62 1226
3.64 1216
3.66 1185
3.68 1147
3.7 1200
3.72 1143
3.74 1155
3.76 1111
3.78 1096
3.8 1060
3.82 1114
3.84 1096
3.86 1047
3.88 1078
3.9 1017
3.92 1055
3.94 1037
3.96 1021
3.98 1007
4 946
4.02 952
4.04 969
4.06 980
4.08 948
4.1 913
4.12 948
4.14 874
4.16 903
4.18 905
4.2 873
4.22 894
4.24 875
4.26 865
4.28 899
4.3 837
4.32 806
4.34 848
4.36 810
4.38 777
4.4 790
4.42 820
4.44 803
4.46 807
4.48 783
4.5 744
4.52 803
4.54 762
4.56 750
4.58 749
4.6 732
4.62 722
4.64 740
4.66 730
4.68 747
4.7 742
4.72 718
4.74 706
4.76 698
4.78 702
4.8 696
4.82 688
4.84 713
4.86 710
4.88 654
4.9 697
4.92 658
4.94 722
4.96 600
4.98 654
5 642
5.02 655
5.04 648
5.06 624
5.08 619
5.1 641
5.12 637
5.14 638
5.16 642
5.18 634
5.2 637
5.22 617
5.24 642
5.26 598
5.28 601
5.3 637
5.32 586
5.34 629
5.36 631
5.38 643
5.4 609
5.42 622
5.44 593
5.46 635
5.48 638
5.5 565
5.52 544
5.54 560
5.56 575
5.58 599
5.6 612
5.62 610
5.64 597
5.66 639
5.68 625
5.7 585
5.72 632
5.74 552
5.76 609
5.78 608
5.8 552
5.82 622
5.84 612
5.86 579
5.88 585
5.9 595
5.92 585
5.94 600
5.96 589
5.98 591
6 601
6.02 609
6.04 589
6.06 606
6.08 591
6.1 604
6.12 574
6.14 564
6.16 561
6.18 586
6.2 531
6.22 587
6.24 588
6.26 588
6.28 608
6.3 584
6.32 589
6.34 562
6.36 548
6.38 589
6.4 588
6.42 553
6.44 564
6.46 594
6.48 543
6.5 589
6.52 572
6.54 614
6.56 570
6.58 560
6.6 603
6.62 591
6.64 583
6.66 527
6.68 557
6.7 562
6.72 538
6.74 547
6.76 511
6.78 578
6.8 584
6.82 582
6.84 578
6.86 561
6.88 584
6.9 570
6.92 559
6.94 545
6.96 580
6.98 564
7 575
7.02 523
7.04 508
7.06 576
7.08 552
7.1 514
7.12 560
7.14 529
7.16 540
7.18 552
7.2 611
7.22 573
7.24 581
7.26 524
7.28 534
7.3 568
7.32 548
7.34 536
7.36 521
7.38 576
7.4 566
7.42 557
7.44 546
7.46 521
7.48 546
7.5 552
7.52 537
7.54 555
7.56 532
7.58 559
7.6 515
7.62 563
7.64 545
7.66 561
7.68 563
7.7 526
7.72 499
7.74 576
7.76 550
7.78 509
7.8 526
7.82 544
7.84 541
7.86 514
7.88 565
7.9 552
7.92 561
7.94 526
7.96 522
7.98 576
8 567
8.02 576
8.04 532
8.06 502
8.08 552
8.1 547
8.12 558
8.14 553
8.16 550
8.18 538
8.2 578
8.22 572
8.24 559
8.26 566
8.28 597
8.3 557
8.32 555
8.34 555
8.36 590
8.38 604
8.4 603
8.42 609
8.44 586
8.46 564
8.48 613
8.5 600
8.52 589
8.54 612
8.56 645
8.58 664
8.6 661
8.62 734
8.64 716
8.66 746
8.68 764
8.7 784
8.72 861
8.74 889
8.76 912
8.78 926
8.8 1069
8.82 1087
8.84 1129
8.86 1211
8.88 1292
8.9 1313
8.92 1337
8.94 1456
8.96 1473
8.98 1486
9 1527
9.02 1361
9.04 1183
9.06 1104
9.08 1055
9.1 891
9.12 817
9.14 849
9.16 798
9.18 811
9.2 724
9.22 702
9.24 692
9.26 715
9.28 685
9.3 678
9.32 707
9.34 648
9.36 643
9.38 585
9.4 599
9.42 638
9.44 625
9.46 630
9.48 635
9.5 614
9.52 616
9.54 590
9.56 633
9.58 641
9.6 647
9.62 654
9.64 664
9.66 668
9.68 705
9.7 682
9.72 767
9.74 738
9.76 787
9.78 848
9.8 859
9.82 946
9.84 941
9.86 1091
9.88 1215
9.9 1217
9.92 1333
9.94 1326
9.96 1149
9.98 1000
10 854
10.02 795
10.04 692
10.06 635
10.08 621
10.1 610
10.12 575
10.14 568
10.16 561
10.18 535
10.2 504
10.22 527
10.24 504
10.26 540
10.28 479
10.3 503
10.32 494
10.34 483
10.36 468
10.38 484
10.4 516
10.42 499
10.44 458
10.46 539
10.48 553
10.5 492
10.52 511
10.54 469
10.56 482
10.58 470
10.6 504
10.62 485
10.64 513
10.66 512
10.68 541
10.7 478
10.72 475
10.74 472
10.76 508
10.78 491
10.8 512
10.82 488
10.84 524
10.86 502
10.88 459
10.9 444
10.92 490
10.94 482
10.96 494
10.98 513
11 494
11.02 494
11.04 496
11.06 468
11.08 494
11.1 457
11.12 459
11.14 493
11.16 490
11.18 474
11.2 458
11.22 445
11.24 496
11.26 477
11.28 495
11.3 420
11.32 474
11.34 438
11.36 462
11.38 462
11.4 467
11.42 493
11.44 459
11.46 477
11.48 480
11.5 443
11.52 447
11.54 476
11.56 463
11.58 422
11.6 459
11.62 457
11.64 475
11.66 468
11.68 477
11.7 433
11.72 473
11.74 435
11.76 442
11.78 471
11.8 421
11.82 461
11.84 453
11.86 468
11.88 459
11.9 468
11.92 458
11.94 473
11.96 455
11.98 473
12 459
12.02 448
12.04 483
12.06 471
12.08 441
12.1 454
12.12 487
12.14 472
12.16 482
12.18 471
12.2 484
12.22 468
12.24 450
12.26 466
12.28 448
12.3 448
12.32 463
12.34 470
12.36 427
12.38 473
12.4 459
12.42 486
12.44 502
12.46 495
12.48 511
12.5 497
12.52 515
12.54 552
12.56 593
12.58 582
12.6 608
12.62 573
12.64 575
12.66 549
12.68 587
12.7 532
12.72 559
12.74 541
12.76 515
12.78 523
12.8 528
12.82 485
12.84 540
12.86 507
12.88 504
12.9 486
12.92 454
12.94 459
12.96 461
12.98 459
13 495
13.02 505
13.04 470
13.06 446
13.08 508
13.1 486
13.12 520
13.14 557
13.16 508
13.18 525
13.2 500
13.22 551
13.24 582
13.26 576
13.28 626
13.3 651
13.32 610
13.34 690
13.36 654
13.38 663
13.4 628
13.42 631
13.44 583
13.46 590
13.48 542
13.5 559
13.52 500
13.54 518
13.56 502
13.58 505
13.6 509
13.62 476
13.64 481
13.66 447
13.68 444
13.7 445
13.72 460
13.74 433
13.76 480
13.78 476
13.8 464
13.82 450
13.84 492
13.86 482
13.88 452
13.9 460
13.92 439
13.94 470
13.96 463
13.98 463
14 439
14.02 441
14.04 457
14.06 450
14.08 454
14.1 445
14.12 488
14.14 466
14.16 468
14.18 474
14.2 447
14.22 451
14.24 472
14.26 468
14.28 481
14.3 491
14.32 459
14.34 421
14.36 458
14.38 511
14.4 510
14.42 503
14.44 423
14.46 455
14.48 475
14.5 458
14.52 438
14.54 475
14.56 448
14.58 496
14.6 495
14.62 443
14.64 504
14.66 464
14.68 464
14.7 477
14.72 470
14.74 468
14.76 471
14.78 484
14.8 492
14.82 486
14.84 478
14.86 486
14.88 480
14.9 438
14.92 476
14.94 449
14.96 469
14.98 524
15 486
15.02 472
15.04 487
15.06 489
15.08 475
15.1 462
15.12 444
15.14 462
15.16 434
15.18 453
15.2 509
15.22 523
15.24 524
15.26 486
15.28 478
15.3 487
15.32 488
15.34 476
15.36 478
15.38 489
15.4 449
15.42 514
15.44 479
15.46 487
15.48 503
15.5 473
15.52 485
15.54 499
15.56 456
15.58 518
15.6 495
15.62 472
15.64 513
15.66 508
15.68 521
15.7 468
15.72 516
15.74 526
15.76 502
15.78 501
15.8 492
15.82 504
15.84 495
15.86 480
15.88 472
15.9 491
15.92 524
15.94 524
15.96 514
15.98 501
16 535
16.02 560
16.04 490
16.06 451
16.08 522
16.1 505
16.12 519
16.14 506
16.16 506
16.18 490
16.2 500
16.22 536
16.24 521
16.26 558
16.28 498
16.3 493
16.32 527
16.34 555
16.36 545
16.38 477
16.4 544
16.42 486
16.44 556
16.46 520
16.48 501
16.5 495
16.52 534
16.54 544
16.56 544
16.58 542
16.6 513
16.62 520
16.64 564
16.66 543
16.68 512
16.7 540
16.72 590
16.74 614
16.76 583
16.78 571
16.8 606
16.82 636
16.84 666
16.86 681
16.88 671
16.9 748
16.92 802
16.94 840
16.96 851
16.98 901
17 924
17.02 862
17.04 731
17.06 727
17.08 657
17.1 582
17.12 589
17.14 588
17.16 571
17.18 597
17.2 565
17.22 546
17.24 538
17.26 566
17.28 540
17.3 558
17.32 603
17.34 599
17.36 586
17.38 554
17.4 551
17.42 513
17.44 593
17.46 542
17.48 558
17.5 542
17.52 537
17.54 547
17.56 600
17.58 614
17.6 582
17.62 538
17.64 604
17.66 575
17.68 594
17.7 613
17.72 625
17.74 606
17.76 606
17.78 583
17.8 627
17.82 604
17.84 597
17.86 614
17.88 650
17.9 582
17.92 631
17.94 611
17.96 591
17.98 620
18 581
18.02 625
18.04 647
18.06 615
18.08 593
18.1 589
18.12 609
18.14 596
18.16 622
18.18 643
18.2 650
18.22 608
18.24 616
18.26 596
18.28 637
18.3 654
18.32 666
18.34 648
18.36 685
18.38 649
18.4 662
18.42 648
18.44 647
18.46 670
18.48 672
18.5 606
18.52 653
18.54 635
18.56 651
18.58 631
18.6 679
18.62 604
18.64 648
18.66 646
18.68 702
18.7 666
18.72 636
18.74 687
18.76 615
18.78 658
18.8 645
18.82 640
18.84 626
18.86 641
18.88 665
18.9 655
18.92 656
18.94 693
18.96 651
18.98 640
19 654
19.02 659
19.04 668
19.06 666
19.08 693
19.1 685
19.12 665
19.14 655
19.16 638
19.18 678
19.2 666
19.22 648
19.24 669
19.26 663
19.28 672
19.3 653
19.32 628
19.34 658
19.36 677
19.38 689
19.4 677
19.42 710
19.44 711
19.46 699
19.48 650
19.5 698
19.52 693
19.54 700
19.56 653
19.58 718
19.6 765
19.62 738
19.64 774
19.66 765
19.68 754
19.7 774
19.72 774
19.74 798
19.76 809
19.78 833
19.8 898
19.82 940
19.84 945
19.86 888
19.88 887
19.9 910
19.92 938
19.94 926
19.96 830
19.98 866
20 906