File: xrd-UiO-67/pxrddata/9-19.ASC
3 2397
3.02 2299
3.04 2137
3.06 2033
3.08 1834
3.1 1821
3.12 1760
3.14 1805
3.16 1705
3.18 1710
3.2 1686
3.22 1745
3.24 1676
3.26 1644
3.28 1611
3.3 1540
3.32 1545
3.34 1495
3.36 1462
3.38 1471
3.4 1566
3.42 1483
3.44 1464
3.46 1394
3.48 1330
3.5 1461
3.52 1427
3.54 1371
3.56 1401
3.58 1339
3.6 1355
3.62 1324
3.64 1313
3.66 1263
3.68 1190
3.7 1252
3.72 1241
3.74 1203
3.76 1176
3.78 1226
3.8 1194
3.82 1167
3.84 1141
3.86 1096
3.88 1181
3.9 1110
3.92 1061
3.94 1128
3.96 1134
3.98 1181
4 1080
4.02 1061
4.04 1016
4.06 1086
4.08 1009
4.1 981
4.12 1073
4.14 1003
4.16 981
4.18 989
4.2 1034
4.22 971
4.24 1033
4.26 962
4.28 958
4.3 964
4.32 950
4.34 939
4.36 933
4.38 905
4.4 924
4.42 946
4.44 954
4.46 891
4.48 906
4.5 914
4.52 865
4.54 936
4.56 887
4.58 903
4.6 889
4.62 870
4.64 843
4.66 790
4.68 842
4.7 830
4.72 874
4.74 828
4.76 843
4.78 849
4.8 840
4.82 784
4.84 775
4.86 823
4.88 804
4.9 854
4.92 837
4.94 813
4.96 719
4.98 823
5 783
5.02 749
5.04 778
5.06 764
5.08 792
5.1 740
5.12 757
5.14 727
5.16 764
5.18 793
5.2 778
5.22 729
5.24 747
5.26 753
5.28 790
5.3 733
5.32 745
5.34 722
5.36 781
5.38 771
5.4 772
5.42 733
5.44 751
5.46 771
5.48 785
5.5 717
5.52 778
5.54 719
5.56 721
5.58 783
5.6 742
5.62 716
5.64 780
5.66 772
5.68 718
5.7 768
5.72 733
5.74 744
5.76 759
5.78 745
5.8 719
5.82 716
5.84 731
5.86 717
5.88 719
5.9 822
5.92 721
5.94 669
5.96 710
5.98 713
6 784
6.02 735
6.04 796
6.06 746
6.08 712
6.1 745
6.12 751
6.14 725
6.16 777
6.18 730
6.2 729
6.22 733
6.24 748
6.26 752
6.28 732
6.3 667
6.32 738
6.34 754
6.36 717
6.38 727
6.4 726
6.42 743
6.44 734
6.46 694
6.48 733
6.5 665
6.52 706
6.54 728
6.56 706
6.58 765
6.6 709
6.62 754
6.64 753
6.66 734
6.68 751
6.7 681
6.72 760
6.74 736
6.76 734
6.78 688
6.8 751
6.82 694
6.84 681
6.86 699
6.88 703
6.9 724
6.92 701
6.94 687
6.96 681
6.98 722
7 698
7.02 719
7.04 680
7.06 731
7.08 722
7.1 711
7.12 703
7.14 699
7.16 720
7.18 735
7.2 721
7.22 704
7.24 706
7.26 729
7.28 703
7.3 708
7.32 699
7.34 703
7.36 716
7.38 739
7.4 712
7.42 760
7.44 749
7.46 714
7.48 683
7.5 690
7.52 702
7.54 714
7.56 687
7.58 669
7.6 700
7.62 738
7.64 717
7.66 701
7.68 689
7.7 695
7.72 752
7.74 695
7.76 717
7.78 684
7.8 714
7.82 738
7.84 793
7.86 771
7.88 703
7.9 684
7.92 682
7.94 695
7.96 714
7.98 707
8 714
8.02 659
8.04 723
8.06 708
8.08 695
8.1 736
8.12 681
8.14 641
8.16 676
8.18 691
8.2 638
8.22 712
8.24 671
8.26 714
8.28 721
8.3 726
8.32 766
8.34 735
8.36 763
8.38 734
8.4 716
8.42 747
8.44 692
8.46 750
8.48 710
8.5 770
8.52 753
8.54 804
8.56 757
8.58 784
8.6 762
8.62 820
8.64 765
8.66 844
8.68 829
8.7 869
8.72 854
8.74 907
8.76 885
8.78 948
8.8 963
8.82 978
8.84 1037
8.86 1130
8.88 1138
8.9 1131
8.92 1206
8.94 1292
8.96 1308
8.98 1261
9 1276
9.02 1283
9.04 1319
9.06 1225
9.08 1165
9.1 1173
9.12 1100
9.14 1022
9.16 1053
9.18 977
9.2 998
9.22 909
9.24 937
9.26 956
9.28 928
9.3 889
9.32 836
9.34 807
9.36 844
9.38 826
9.4 775
9.42 802
9.44 816
9.46 788
9.48 809
9.5 831
9.52 805
9.54 809
9.56 826
9.58 823
9.6 800
9.62 815
9.64 818
9.66 867
9.68 814
9.7 904
9.72 932
9.74 898
9.76 907
9.78 964
9.8 919
9.82 1014
9.84 983
9.86 978
9.88 1040
9.9 1049
9.92 1110
9.94 1198
9.96 1154
9.98 1214
10 1210
10.02 1224
10.04 1222
10.06 1189
10.08 1117
10.1 1104
10.12 998
10.14 992
10.16 909
10.18 874
10.2 883
10.22 800
10.24 813
10.26 769
10.28 769
10.3 781
10.32 729
10.34 746
10.36 737
10.38 737
10.4 703
10.42 746
10.44 699
10.46 733
10.48 775
10.5 750
10.52 736
10.54 718
10.56 712
10.58 664
10.6 721
10.62 684
10.64 738
10.66 662
10.68 642
10.7 718
10.72 637
10.74 708
10.76 652
10.78 719
10.8 687
10.82 707
10.84 689
10.86 650
10.88 681
10.9 707
10.92 702
10.94 679
10.96 662
10.98 735
11 613
11.02 671
11.04 637
11.06 662
11.08 657
11.1 706
11.12 648
11.14 684
11.16 639
11.18 688
11.2 735
11.22 669
11.24 652
11.26 654
11.28 693
11.3 699
11.32 650
11.34 701
11.36 651
11.38 668
11.4 698
11.42 699
11.44 700
11.46 687
11.48 683
11.5 648
11.52 675
11.54 682
11.56 641
11.58 700
11.6 673
11.62 614
11.64 705
11.66 645
11.68 650
11.7 681
11.72 658
11.74 674
11.76 643
11.78 617
11.8 718
11.82 694
11.84 693
11.86 674
11.88 713
11.9 641
11.92 725
11.94 693
11.96 672
11.98 669
12 671
12.02 655
12.04 681
12.06 678
12.08 620
12.1 695
12.12 688
12.14 728
12.16 642
12.18 668
12.2 686
12.22 665
12.24 685
12.26 696
12.28 645
12.3 682
12.32 680
12.34 687
12.36 720
12.38 719
12.4 664
12.42 689
12.44 708
12.46 721
12.48 715
12.5 722
12.52 731
12.54 744
12.56 770
12.58 805
12.6 740
12.62 793
12.64 796
12.66 853
12.68 782
12.7 797
12.72 747
12.74 776
12.76 792
12.78 721
12.8 758
12.82 712
12.84 694
12.86 732
12.88 667
12.9 720
12.92 712
12.94 756
12.96 690
12.98 725
13 710
13.02 718
13.04 715
13.06 734
13.08 751
13.1 704
13.12 705
13.14 735
13.16 705
13.18 738
13.2 707
13.22 747
13.24 744
13.26 726
13.28 730
13.3 697
13.32 723
13.34 714
13.36 730
13.38 783
13.4 756
13.42 711
13.44 684
13.46 699
13.48 701
13.5 690
13.52 714
13.54 732
13.56 738
13.58 722
13.6 686
13.62 709
13.64 732
13.66 721
13.68 709
13.7 751
13.72 694
13.74 709
13.76 751
13.78 789
13.8 718
13.82 666
13.84 675
13.86 693
13.88 704
13.9 724
13.92 709
13.94 681
13.96 685
13.98 739
14 750
14.02 671
14.04 781
14.06 688
14.08 674
14.1 677
14.12 676
14.14 776
14.16 722
14.18 789
14.2 728
14.22 743
14.24 766
14.26 688
14.28 732
14.3 734
14.32 743
14.34 673
14.36 703
14.38 764
14.4 748
14.42 734
14.44 774
14.46 708
14.48 787
14.5 773
14.52 752
14.54 704
14.56 744
14.58 772
14.6 707
14.62 695
14.64 716
14.66 765
14.68 733
14.7 744
14.72 711
14.74 715
14.76 723
14.78 726
14.8 768
14.82 736
14.84 774
14.86 758
14.88 695
14.9 701
14.92 770
14.94 773
14.96 758
14.98 765
15 732
15.02 735
15.04 737
15.06 768
15.08 748
15.1 713
15.12 783
15.14 756
15.16 723
15.18 790
15.2 807
15.22 747
15.24 772
15.26 774
15.28 749
15.3 801
15.32 745
15.34 741
15.36 777
15.38 783
15.4 767
15.42 801
15.44 848
15.46 796
15.48 780
15.5 763
15.52 807
15.54 756
15.56 779
15.58 812
15.6 868
15.62 881
15.64 747
15.66 759
15.68 781
15.7 753
15.72 763
15.74 794
15.76 798
15.78 822
15.8 783
15.82 754
15.84 796
15.86 809
15.88 786
15.9 789
15.92 827
15.94 819
15.96 799
15.98 808
16 872
16.02 793
16.04 801
16.06 800
16.08 872
16.1 842
16.12 817
16.14 866
16.16 855
16.18 805
16.2 792
16.22 835
16.24 864
16.26 852
16.28 873
16.3 845
16.32 859
16.34 838
16.36 832
16.38 826
16.4 881
16.42 871
16.44 848
16.46 840
16.48 813
16.5 877
16.52 850
16.54 890
16.56 889
16.58 841
16.6 883
16.62 915
16.64 937
16.66 927
16.68 900
16.7 856
16.72 866
16.74 901
16.76 969
16.78 954
16.8 904
16.82 945
16.84 959
16.86 1026
16.88 983
16.9 1068
16.92 1111
16.94 1172
16.96 1356
16.98 1445
17 1465
17.02 1623
17.04 1554
17.06 1660
17.08 1539
17.1 1441
17.12 1314
17.14 1191
17.16 1108
17.18 1073
17.2 997
17.22 1017
17.24 1011
17.26 988
17.28 971
17.3 1001
17.32 952
17.34 965
17.36 965
17.38 973
17.4 989
17.42 997
17.44 966
17.46 949
17.48 989
17.5 990
17.52 984
17.54 1011
17.56 1018
17.58 987
17.6 1046
17.62 1005
17.64 1040
17.66 1082
17.68 1047
17.7 1023
17.72 1035
17.74 980
17.76 1059
17.78 1003
17.8 1077
17.82 1056
17.84 1048
17.86 1063
17.88 1055
17.9 1027
17.92 1001
17.94 1053
17.96 1037
17.98 1071
18 1079
18.02 1119
18.04 1097
18.06 1050
18.08 1048
18.1 1093
18.12 1122
18.14 1137
18.16 1092
18.18 1101
18.2 1110
18.22 1101
18.24 1122
18.26 1124
18.28 1176
18.3 1119
18.32 1073
18.34 1049
18.36 1080
18.38 1083
18.4 1174
18.42 1078
18.44 1106
18.46 1199
18.48 1145
18.5 1090
18.52 1158
18.54 1195
18.56 1199
18.58 1150
18.6 1171
18.62 1162
18.64 1120
18.66 1184
18.68 1150
18.7 1131
18.72 1166
18.74 1207
18.76 1170
18.78 1179
18.8 1226
18.82 1166
18.84 1213
18.86 1217
18.88 1173
18.9 1192
18.92 1251
18.94 1211
18.96 1127
18.98 1223
19 1241
19.02 1219
19.04 1252
19.06 1200
19.08 1298
19.1 1167
19.12 1204
19.14 1201
19.16 1250
19.18 1244
19.2 1225
19.22 1205
19.24 1265
19.26 1259
19.28 1269
19.3 1293
19.32 1242
19.34 1298
19.36 1303
19.38 1222
19.4 1267
19.42 1279
19.44 1224
19.46 1271
19.48 1255
19.5 1249
19.52 1293
19.54 1322
19.56 1309
19.58 1336
19.6 1348
19.62 1334
19.64 1326
19.66 1346
19.68 1370
19.7 1360
19.72 1357
19.74 1373
19.76 1426
19.78 1421
19.8 1455
19.82 1423
19.84 1423
19.86 1414
19.88 1420
19.9 1404
19.92 1397
19.94 1372
19.96 1422
19.98 1424
20 1517