File: xrd-UiO-67/pxrddata/9-3.ASC
3 1911
3.02 1840
3.04 1650
3.06 1628
3.08 1540
3.1 1496
3.12 1479
3.14 1441
3.16 1352
3.18 1371
3.2 1364
3.22 1323
3.24 1322
3.26 1270
3.28 1329
3.3 1341
3.32 1276
3.34 1248
3.36 1213
3.38 1184
3.4 1223
3.42 1182
3.44 1212
3.46 1180
3.48 1114
3.5 1162
3.52 1120
3.54 1175
3.56 1144
3.58 1078
3.6 1057
3.62 1105
3.64 1094
3.66 1073
3.68 1059
3.7 1043
3.72 990
3.74 1059
3.76 1090
3.78 980
3.8 1005
3.82 980
3.84 1020
3.86 1029
3.88 991
3.9 969
3.92 880
3.94 946
3.96 930
3.98 890
4 904
4.02 871
4.04 931
4.06 886
4.08 945
4.1 923
4.12 881
4.14 806
4.16 890
4.18 819
4.2 845
4.22 817
4.24 794
4.26 856
4.28 823
4.3 782
4.32 853
4.34 780
4.36 802
4.38 741
4.4 760
4.42 749
4.44 823
4.46 796
4.48 764
4.5 712
4.52 770
4.54 768
4.56 739
4.58 759
4.6 798
4.62 734
4.64 732
4.66 758
4.68 722
4.7 698
4.72 726
4.74 731
4.76 687
4.78 723
4.8 707
4.82 684
4.84 705
4.86 747
4.88 682
4.9 657
4.92 713
4.94 672
4.96 622
4.98 764
5 757
5.02 670
5.04 671
5.06 703
5.08 705
5.1 683
5.12 678
5.14 681
5.16 638
5.18 684
5.2 685
5.22 697
5.24 715
5.26 659
5.28 676
5.3 669
5.32 704
5.34 663
5.36 682
5.38 649
5.4 669
5.42 641
5.44 645
5.46 655
5.48 703
5.5 668
5.52 656
5.54 683
5.56 618
5.58 664
5.6 651
5.62 664
5.64 639
5.66 623
5.68 643
5.7 632
5.72 657
5.74 652
5.76 652
5.78 705
5.8 628
5.82 642
5.84 650
5.86 679
5.88 630
5.9 632
5.92 625
5.94 649
5.96 658
5.98 637
6 633
6.02 666
6.04 665
6.06 655
6.08 629
6.1 663
6.12 660
6.14 647
6.16 586
6.18 651
6.2 682
6.22 653
6.24 651
6.26 660
6.28 666
6.3 669
6.32 648
6.34 642
6.36 687
6.38 673
6.4 650
6.42 646
6.44 642
6.46 613
6.48 672
6.5 633
6.52 672
6.54 676
6.56 629
6.58 642
6.6 635
6.62 671
6.64 636
6.66 626
6.68 634
6.7 643
6.72 624
6.74 637
6.76 704
6.78 633
6.8 669
6.82 624
6.84 687
6.86 657
6.88 641
6.9 619
6.92 654
6.94 626
6.96 643
6.98 682
7 643
7.02 652
7.04 646
7.06 651
7.08 675
7.1 636
7.12 595
7.14 678
7.16 633
7.18 606
7.2 619
7.22 666
7.24 675
7.26 636
7.28 644
7.3 614
7.32 649
7.34 670
7.36 647
7.38 653
7.4 634
7.42 645
7.44 654
7.46 659
7.48 670
7.5 653
7.52 643
7.54 641
7.56 631
7.58 624
7.6 652
7.62 658
7.64 649
7.66 637
7.68 611
7.7 655
7.72 653
7.74 664
7.76 656
7.78 660
7.8 679
7.82 655
7.84 684
7.86 666
7.88 639
7.9 619
7.92 645
7.94 656
7.96 670
7.98 633
8 696
8.02 664
8.04 633
8.06 645
8.08 612
8.1 630
8.12 681
8.14 632
8.16 652
8.18 647
8.2 623
8.22 666
8.24 602
8.26 603
8.28 633
8.3 670
8.32 615
8.34 635
8.36 656
8.38 634
8.4 649
8.42 662
8.44 678
8.46 630
8.48 667
8.5 642
8.52 618
8.54 679
8.56 694
8.58 681
8.6 652
8.62 709
8.64 671
8.66 721
8.68 678
8.7 688
8.72 718
8.74 724
8.76 709
8.78 743
8.8 810
8.82 782
8.84 815
8.86 896
8.88 909
8.9 909
8.92 959
8.94 1014
8.96 1036
8.98 1094
9 1138
9.02 1157
9.04 1237
9.06 1274
9.08 1273
9.1 1302
9.12 1339
9.14 1292
9.16 1226
9.18 1092
9.2 1026
9.22 988
9.24 879
9.26 812
9.28 842
9.3 728
9.32 770
9.34 728
9.36 682
9.38 758
9.4 705
9.42 708
9.44 704
9.46 724
9.48 719
9.5 685
9.52 732
9.54 754
9.56 748
9.58 727
9.6 728
9.62 704
9.64 759
9.66 755
9.68 815
9.7 782
9.72 810
9.74 793
9.76 844
9.78 873
9.8 914
9.82 852
9.84 898
9.86 939
9.88 935
9.9 941
9.92 1000
9.94 1056
9.96 1129
9.98 1156
10 1196
10.02 1184
10.04 1211
10.06 1226
10.08 1285
10.1 1196
10.12 1083
10.14 1027
10.16 890
10.18 831
10.2 852
10.22 750
10.24 738
10.26 719
10.28 704
10.3 708
10.32 704
10.34 670
10.36 672
10.38 651
10.4 698
10.42 722
10.44 605
10.46 664
10.48 642
10.5 634
10.52 650
10.54 635
10.56 685
10.58 613
10.6 633
10.62 663
10.64 606
10.66 649
10.68 649
10.7 665
10.72 616
10.74 655
10.76 607
10.78 639
10.8 636
10.82 623
10.84 616
10.86 646
10.88 643
10.9 667
10.92 623
10.94 627
10.96 596
10.98 601
11 635
11.02 602
11.04 622
11.06 583
11.08 614
11.1 632
11.12 644
11.14 641
11.16 623
11.18 665
11.2 686
11.22 657
11.24 633
11.26 655
11.28 620
11.3 663
11.32 636
11.34 644
11.36 591
11.38 617
11.4 607
11.42 656
11.44 638
11.46 654
11.48 648
11.5 639
11.52 662
11.54 621
11.56 661
11.58 627
11.6 660
11.62 635
11.64 654
11.66 625
11.68 641
11.7 632
11.72 613
11.74 631
11.76 627
11.78 587
11.8 641
11.82 570
11.84 631
11.86 668
11.88 653
11.9 631
11.92 612
11.94 603
11.96 616
11.98 615
12 599
12.02 632
12.04 640
12.06 634
12.08 592
12.1 627
12.12 599
12.14 638
12.16 632
12.18 681
12.2 626
12.22 620
12.24 602
12.26 639
12.28 651
12.3 633
12.32 633
12.34 599
12.36 599
12.38 643
12.4 607
12.42 628
12.44 653
12.46 651
12.48 599
12.5 662
12.52 678
12.54 704
12.56 668
12.58 649
12.6 699
12.62 749
12.64 732
12.66 747
12.68 757
12.7 769
12.72 772
12.74 722
12.76 762
12.78 673
12.8 728
12.82 696
12.84 687
12.86 667
12.88 618
12.9 695
12.92 703
12.94 636
12.96 656
12.98 681
13 638
13.02 632
13.04 666
13.06 615
13.08 603
13.1 661
13.12 660
13.14 678
13.16 663
13.18 695
13.2 657
13.22 645
13.24 667
13.26 662
13.28 653
13.3 682
13.32 670
13.34 728
13.36 670
13.38 682
13.4 675
13.42 689
13.44 684
13.46 649
13.48 647
13.5 683
13.52 696
13.54 734
13.56 630
13.58 628
13.6 662
13.62 642
13.64 636
13.66 652
13.68 680
13.7 616
13.72 614
13.74 694
13.76 646
13.78 646
13.8 645
13.82 629
13.84 596
13.86 631
13.88 589
13.9 664
13.92 668
13.94 672
13.96 615
13.98 655
14 641
14.02 650
14.04 640
14.06 627
14.08 638
14.1 657
14.12 664
14.14 644
14.16 651
14.18 634
14.2 652
14.22 695
14.24 674
14.26 661
14.28 632
14.3 647
14.32 685
14.34 634
14.36 628
14.38 672
14.4 654
14.42 679
14.44 709
14.46 661
14.48 676
14.5 684
14.52 709
14.54 666
14.56 686
14.58 683
14.6 645
14.62 690
14.64 626
14.66 667
14.68 702
14.7 618
14.72 640
14.74 653
14.76 682
14.78 703
14.8 618
14.82 679
14.84 665
14.86 657
14.88 695
14.9 713
14.92 677
14.94 726
14.96 651
14.98 637
15 636
15.02 676
15.04 668
15.06 694
15.08 671
15.1 679
15.12 629
15.14 676
15.16 675
15.18 626
15.2 630
15.22 704
15.24 726
15.26 716
15.28 705
15.3 708
15.32 754
15.34 671
15.36 690
15.38 693
15.4 661
15.42 702
15.44 704
15.46 674
15.48 722
15.5 706
15.52 739
15.54 682
15.56 631
15.58 703
15.6 720
15.62 721
15.64 681
15.66 720
15.68 682
15.7 735
15.72 708
15.74 671
15.76 755
15.78 740
15.8 750
15.82 759
15.84 710
15.86 737
15.88 768
15.9 757
15.92 710
15.94 705
15.96 756
15.98 704
16 723
16.02 748
16.04 751
16.06 740
16.08 734
16.1 709
16.12 711
16.14 765
16.16 702
16.18 705
16.2 708
16.22 744
16.24 747
16.26 764
16.28 791
16.3 762
16.32 755
16.34 718
16.36 760
16.38 791
16.4 750
16.42 792
16.44 734
16.46 801
16.48 731
16.5 785
16.52 708
16.54 726
16.56 771
16.58 787
16.6 789
16.62 762
16.64 804
16.66 848
16.68 820
16.7 821
16.72 794
16.74 793
16.76 827
16.78 898
16.8 835
16.82 840
16.84 880
16.86 872
16.88 864
16.9 826
16.92 883
16.94 941
16.96 978
16.98 1001
17 1014
17.02 1045
17.04 1075
17.06 1031
17.08 1069
17.1 1175
17.12 1126
17.14 1149
17.16 1132
17.18 1027
17.2 1001
17.22 948
17.24 843
17.26 857
17.28 871
17.3 907
17.32 846
17.34 834
17.36 871
17.38 893
17.4 864
17.42 882
17.44 874
17.46 853
17.48 863
17.5 897
17.52 928
17.54 894
17.56 865
17.58 866
17.6 916
17.62 912
17.64 832
17.66 879
17.68 856
17.7 921
17.72 968
17.74 885
17.76 938
17.78 939
17.8 866
17.82 874
17.84 939
17.86 1001
17.88 969
17.9 939
17.92 972
17.94 894
17.96 942
17.98 928
18 939
18.02 914
18.04 972
18.06 935
18.08 941
18.1 923
18.12 943
18.14 978
18.16 1000
18.18 992
18.2 957
18.22 1004
18.24 913
18.26 953
18.28 978
18.3 1028
18.32 999
18.34 1016
18.36 969
18.38 936
18.4 1016
18.42 1014
18.44 1060
18.46 1028
18.48 1041
18.5 1041
18.52 997
18.54 1016
18.56 1032
18.58 1018
18.6 985
18.62 1024
18.64 1063
18.66 1030
18.68 1022
18.7 1040
18.72 1059
18.74 1036
18.76 1057
18.78 1003
18.8 1048
18.82 1037
18.84 1007
18.86 1056
18.88 1047
18.9 994
18.92 1042
18.94 1026
18.96 1076
18.98 1057
19 1061
19.02 1026
19.04 1044
19.06 1099
19.08 1124
19.1 1064
19.12 1090
19.14 1124
19.16 1155
19.18 1103
19.2 1119
19.22 1092
19.24 1064
19.26 1071
19.28 1130
19.3 1073
19.32 1128
19.34 1029
19.36 1081
19.38 1090
19.4 1108
19.42 1105
19.44 1147
19.46 1132
19.48 1171
19.5 1083
19.52 1115
19.54 1114
19.56 1160
19.58 1129
19.6 1111
19.62 1119
19.64 1174
19.66 1131
19.68 1223
19.7 1140
19.72 1154
19.74 1139
19.76 1178
19.78 1189
19.8 1263
19.82 1167
19.84 1198
19.86 1212
19.88 1225
19.9 1209
19.92 1353
19.94 1253
19.96 1333
19.98 1339
20 1322