File: xrd-UiO-67/pxrddata/9-4.ASC
3 1939
3.02 1825
3.04 1804
3.06 1625
3.08 1586
3.1 1524
3.12 1395
3.14 1429
3.16 1397
3.18 1348
3.2 1345
3.22 1401
3.24 1281
3.26 1350
3.28 1221
3.3 1254
3.32 1252
3.34 1231
3.36 1246
3.38 1248
3.4 1187
3.42 1167
3.44 1161
3.46 1092
3.48 1130
3.5 1169
3.52 1134
3.54 1079
3.56 1066
3.58 1138
3.6 1089
3.62 1056
3.64 1051
3.66 1017
3.68 1006
3.7 1000
3.72 1025
3.74 951
3.76 966
3.78 993
3.8 1022
3.82 967
3.84 927
3.86 929
3.88 944
3.9 978
3.92 914
3.94 903
3.96 949
3.98 941
4 929
4.02 930
4.04 898
4.06 942
4.08 867
4.1 891
4.12 880
4.14 834
4.16 842
4.18 821
4.2 881
4.22 865
4.24 872
4.26 835
4.28 757
4.3 814
4.32 798
4.34 829
4.36 819
4.38 838
4.4 811
4.42 817
4.44 808
4.46 796
4.48 807
4.5 756
4.52 753
4.54 750
4.56 783
4.58 761
4.6 738
4.62 754
4.64 767
4.66 704
4.68 738
4.7 731
4.72 718
4.74 739
4.76 712
4.78 720
4.8 723
4.82 673
4.84 702
4.86 695
4.88 751
4.9 706
4.92 715
4.94 718
4.96 744
4.98 692
5 692
5.02 768
5.04 771
5.06 753
5.08 750
5.1 785
5.12 757
5.14 768
5.16 753
5.18 720
5.2 811
5.22 831
5.24 798
5.26 857
5.28 861
5.3 935
5.32 950
5.34 1000
5.36 1044
5.38 1016
5.4 1108
5.42 1236
5.44 1243
5.46 1290
5.48 1390
5.5 1466
5.52 1466
5.54 1599
5.56 1592
5.58 1511
5.6 1420
5.62 1283
5.64 1285
5.66 1269
5.68 1319
5.7 1334
5.72 1305
5.74 1295
5.76 1375
5.78 1392
5.8 1427
5.82 1418
5.84 1382
5.86 1363
5.88 1312
5.9 1242
5.92 1136
5.94 1061
5.96 1033
5.98 907
6 884
6.02 806
6.04 802
6.06 710
6.08 741
6.1 716
6.12 695
6.14 702
6.16 724
6.18 693
6.2 661
6.22 671
6.24 706
6.26 646
6.28 608
6.3 660
6.32 669
6.34 683
6.36 650
6.38 616
6.4 650
6.42 613
6.44 673
6.46 688
6.48 682
6.5 652
6.52 654
6.54 661
6.56 683
6.58 644
6.6 676
6.62 655
6.64 717
6.66 673
6.68 711
6.7 753
6.72 705
6.74 755
6.76 798
6.78 787
6.8 758
6.82 817
6.84 768
6.86 778
6.88 801
6.9 776
6.92 835
6.94 776
6.96 800
6.98 784
7 779
7.02 795
7.04 854
7.06 809
7.08 840
7.1 808
7.12 802
7.14 787
7.16 822
7.18 796
7.2 867
7.22 805
7.24 820
7.26 842
7.28 830
7.3 851
7.32 904
7.34 824
7.36 882
7.38 849
7.4 882
7.42 940
7.44 891
7.46 890
7.48 878
7.5 819
7.52 823
7.54 894
7.56 841
7.58 773
7.6 811
7.62 760
7.64 747
7.66 690
7.68 731
7.7 688
7.72 668
7.74 659
7.76 690
7.78 690
7.8 648
7.82 656
7.84 636
7.86 649
7.88 635
7.9 653
7.92 603
7.94 612
7.96 648
7.98 619
8 568
8.02 642
8.04 664
8.06 616
8.08 573
8.1 577
8.12 594
8.14 629
8.16 574
8.18 600
8.2 615
8.22 569
8.24 596
8.26 596
8.28 611
8.3 626
8.32 578
8.34 594
8.36 568
8.38 588
8.4 598
8.42 557
8.44 536
8.46 605
8.48 587
8.5 640
8.52 592
8.54 610
8.56 605
8.58 561
8.6 576
8.62 547
8.64 587
8.66 569
8.68 588
8.7 573
8.72 592
8.74 537
8.76 574
8.78 557
8.8 530
8.82 589
8.84 591
8.86 552
8.88 564
8.9 546
8.92 531
8.94 558
8.96 570
8.98 558
9 564
9.02 599
9.04 558
9.06 608
9.08 569
9.1 524
9.12 614
9.14 597
9.16 624
9.18 623
9.2 597
9.22 599
9.24 634
9.26 689
9.28 691
9.3 710
9.32 781
9.34 801
9.36 805
9.38 877
9.4 982
9.42 900
9.44 1008
9.46 1038
9.48 944
9.5 833
9.52 718
9.54 635
9.56 630
9.58 651
9.6 599
9.62 563
9.64 553
9.66 637
9.68 607
9.7 593
9.72 626
9.74 576
9.76 624
9.78 550
9.8 619
9.82 569
9.84 580
9.86 564
9.88 598
9.9 586
9.92 601
9.94 578
9.96 580
9.98 553
10 578
10.02 582
10.04 538
10.06 579
10.08 575
10.1 578
10.12 576
10.14 597
10.16 579
10.18 595
10.2 626
10.22 604
10.24 616
10.26 600
10.28 594
10.3 633
10.32 578
10.34 615
10.36 591
10.38 602
10.4 587
10.42 550
10.44 597
10.46 566
10.48 567
10.5 545
10.52 544
10.54 545
10.56 556
10.58 568
10.6 575
10.62 535
10.64 551
10.66 595
10.68 565
10.7 554
10.72 575
10.74 631
10.76 612
10.78 668
10.8 663
10.82 653
10.84 725
10.86 741
10.88 764
10.9 757
10.92 748
10.94 732
10.96 774
10.98 773
11 731
11.02 766
11.04 760
11.06 729
11.08 755
11.1 764
11.12 649
11.14 622
11.16 624
11.18 595
11.2 582
11.22 560
11.24 555
11.26 528
11.28 541
11.3 582
11.32 572
11.34 548
11.36 561
11.38 528
11.4 531
11.42 617
11.44 566
11.46 624
11.48 595
11.5 569
11.52 550
11.54 569
11.56 579
11.58 601
11.6 604
11.62 559
11.64 613
11.66 559
11.68 603
11.7 614
11.72 608
11.74 571
11.76 554
11.78 590
11.8 574
11.82 573
11.84 572
11.86 544
11.88 532
11.9 583
11.92 538
11.94 543
11.96 575
11.98 578
12 584
12.02 597
12.04 600
12.06 618
12.08 576
12.1 587
12.12 581
12.14 596
12.16 586
12.18 600
12.2 622
12.22 596
12.24 591
12.26 593
12.28 633
12.3 627
12.32 587
12.34 610
12.36 587
12.38 615
12.4 628
12.42 599
12.44 556
12.46 586
12.48 560
12.5 587
12.52 576
12.54 555
12.56 531
12.58 533
12.6 573
12.62 541
12.64 580
12.66 588
12.68 575
12.7 564
12.72 525
12.74 526
12.76 553
12.78 570
12.8 569
12.82 565
12.84 545
12.86 545
12.88 546
12.9 567
12.92 558
12.94 535
12.96 545
12.98 583
13 563
13.02 568
13.04 567
13.06 569
13.08 548
13.1 573
13.12 527
13.14 553
13.16 528
13.18 546
13.2 546
13.22 572
13.24 570
13.26 589
13.28 565
13.3 559
13.32 607
13.34 553
13.36 564
13.38 563
13.4 551
13.42 564
13.44 587
13.46 582
13.48 590
13.5 537
13.52 605
13.54 620
13.56 577
13.58 592
13.6 593
13.62 543
13.64 568
13.66 616
13.68 557
13.7 562
13.72 606
13.74 567
13.76 611
13.78 585
13.8 593
13.82 587
13.84 610
13.86 606
13.88 603
13.9 568
13.92 607
13.94 600
13.96 608
13.98 608
14 614
14.02 605
14.04 581
14.06 599
14.08 606
14.1 586
14.12 601
14.14 586
14.16 634
14.18 589
14.2 631
14.22 643
14.24 595
14.26 610
14.28 604
14.3 617
14.32 595
14.34 647
14.36 645
14.38 668
14.4 642
14.42 666
14.44 629
14.46 640
14.48 620
14.5 592
14.52 598
14.54 618
14.56 595
14.58 615
14.6 600
14.62 633
14.64 607
14.66 615
14.68 580
14.7 606
14.72 675
14.74 634
14.76 672
14.78 659
14.8 617
14.82 639
14.84 646
14.86 650
14.88 606
14.9 631
14.92 636
14.94 628
14.96 668
14.98 645
15 625
15.02 618
15.04 652
15.06 618
15.08 638
15.1 634
15.12 618
15.14 621
15.16 603
15.18 657
15.2 657
15.22 636
15.24 686
15.26 662
15.28 641
15.3 627
15.32 624
15.34 662
15.36 636
15.38 681
15.4 650
15.42 634
15.44 643
15.46 650
15.48 653
15.5 650
15.52 648
15.54 659
15.56 661
15.58 611
15.6 658
15.62 669
15.64 669
15.66 683
15.68 662
15.7 640
15.72 676
15.74 709
15.76 699
15.78 657
15.8 673
15.82 706
15.84 694
15.86 725
15.88 691
15.9 671
15.92 703
15.94 676
15.96 743
15.98 716
16 703
16.02 745
16.04 745
16.06 652
16.08 702
16.1 675
16.12 689
16.14 730
16.16 734
16.18 688
16.2 757
16.22 735
16.24 735
16.26 742
16.28 689
16.3 704
16.32 699
16.34 735
16.36 756
16.38 739
16.4 762
16.42 728
16.44 778
16.46 736
16.48 788
16.5 750
16.52 716
16.54 755
16.56 731
16.58 792
16.6 737
16.62 729
16.64 795
16.66 743
16.68 757
16.7 782
16.72 806
16.74 771
16.76 804
16.78 797
16.8 793
16.82 756
16.84 784
16.86 782
16.88 773
16.9 829
16.92 826
16.94 846
16.96 899
16.98 966
17 1054
17.02 1064
17.04 1122
17.06 1164
17.08 1238
17.1 1161
17.12 1146
17.14 1151
17.16 1092
17.18 961
17.2 920
17.22 845
17.24 843
17.26 848
17.28 838
17.3 829
17.32 893
17.34 822
17.36 862
17.38 884
17.4 866
17.42 824
17.44 838
17.46 870
17.48 868
17.5 865
17.52 847
17.54 815
17.56 887
17.58 843
17.6 893
17.62 868
17.64 909
17.66 887
17.68 861
17.7 844
17.72 853
17.74 883
17.76 861
17.78 968
17.8 883
17.82 863
17.84 856
17.86 889
17.88 897
17.9 901
17.92 870
17.94 895
17.96 988
17.98 905
18 918
18.02 871
18.04 904
18.06 908
18.08 883
18.1 972
18.12 944
18.14 959
18.16 874
18.18 918
18.2 915
18.22 905
18.24 886
18.26 943
18.28 948
18.3 956
18.32 936
18.34 968
18.36 993
18.38 1016
18.4 954
18.42 1026
18.44 1020
18.46 1000
18.48 984
18.5 1001
18.52 968
18.54 1014
18.56 998
18.58 970
18.6 1038
18.62 1056
18.64 1059
18.66 1045
18.68 983
18.7 1003
18.72 1043
18.74 1069
18.76 1091
18.78 1108
18.8 1046
18.82 1116
18.84 1102
18.86 1061
18.88 1057
18.9 1011
18.92 1038
18.94 1042
18.96 1064
18.98 1124
19 1104
19.02 1099
19.04 1059
19.06 1107
19.08 1035
19.1 1119
19.12 1143
19.14 1143
19.16 1118
19.18 1173
19.2 1165
19.22 1155
19.24 1160
19.26 1126
19.28 1120
19.3 1155
19.32 1148
19.34 1116
19.36 1131
19.38 1129
19.4 1120
19.42 1173
19.44 1218
19.46 1106
19.48 1269
19.5 1188
19.52 1254
19.54 1289
19.56 1290
19.58 1255
19.6 1258
19.62 1325
19.64 1273
19.66 1277
19.68 1251
19.7 1281
19.72 1170
19.74 1218
19.76 1224
19.78 1150
19.8 1171
19.82 1184
19.84 1254
19.86 1151
19.88 1221
19.9 1218
19.92 1243
19.94 1213
19.96 1235
19.98 1203
20 1183