File: xrd-UiO-67/pxrddata/9-5-1.ASC
3 1939
3.02 1776
3.04 1619
3.06 1482
3.08 1494
3.1 1425
3.12 1337
3.14 1332
3.16 1332
3.18 1297
3.2 1280
3.22 1220
3.24 1245
3.26 1262
3.28 1204
3.3 1187
3.32 1173
3.34 1227
3.36 1172
3.38 1223
3.4 1098
3.42 1173
3.44 1146
3.46 1131
3.48 1138
3.5 1059
3.52 1091
3.54 1101
3.56 1091
3.58 1085
3.6 1030
3.62 1003
3.64 1050
3.66 1057
3.68 1034
3.7 1038
3.72 931
3.74 913
3.76 975
3.78 972
3.8 944
3.82 927
3.84 914
3.86 904
3.88 933
3.9 890
3.92 874
3.94 904
3.96 870
3.98 921
4 806
4.02 806
4.04 845
4.06 834
4.08 797
4.1 793
4.12 798
4.14 765
4.16 810
4.18 838
4.2 831
4.22 781
4.24 790
4.26 745
4.28 737
4.3 763
4.32 705
4.34 755
4.36 793
4.38 714
4.4 717
4.42 745
4.44 668
4.46 702
4.48 721
4.5 708
4.52 727
4.54 716
4.56 722
4.58 721
4.6 745
4.62 692
4.64 678
4.66 634
4.68 662
4.7 587
4.72 683
4.74 704
4.76 673
4.78 651
4.8 646
4.82 632
4.84 657
4.86 661
4.88 620
4.9 626
4.92 609
4.94 656
4.96 666
4.98 659
5 635
5.02 607
5.04 601
5.06 610
5.08 578
5.1 623
5.12 602
5.14 617
5.16 649
5.18 615
5.2 588
5.22 610
5.24 594
5.26 607
5.28 598
5.3 599
5.32 626
5.34 624
5.36 561
5.38 561
5.4 597
5.42 595
5.44 608
5.46 589
5.48 581
5.5 619
5.52 566
5.54 651
5.56 627
5.58 628
5.6 592
5.62 544
5.64 565
5.66 607
5.68 558
5.7 584
5.72 570
5.74 609
5.76 593
5.78 610
5.8 604
5.82 601
5.84 588
5.86 597
5.88 595
5.9 572
5.92 611
5.94 605
5.96 620
5.98 651
6 593
6.02 594
6.04 560
6.06 633
6.08 626
6.1 633
6.12 576
6.14 595
6.16 640
6.18 603
6.2 555
6.22 567
6.24 593
6.26 596
6.28 592
6.3 578
6.32 590
6.34 549
6.36 554
6.38 592
6.4 571
6.42 619
6.44 617
6.46 611
6.48 591
6.5 572
6.52 601
6.54 611
6.56 597
6.58 622
6.6 626
6.62 629
6.64 598
6.66 606
6.68 614
6.7 598
6.72 600
6.74 614
6.76 598
6.78 594
6.8 603
6.82 628
6.84 633
6.86 602
6.88 619
6.9 611
6.92 628
6.94 590
6.96 627
6.98 617
7 642
7.02 599
7.04 618
7.06 596
7.08 629
7.1 639
7.12 629
7.14 619
7.16 651
7.18 614
7.2 618
7.22 568
7.24 621
7.26 653
7.28 570
7.3 589
7.32 584
7.34 617
7.36 616
7.38 595
7.4 644
7.42 595
7.44 611
7.46 625
7.48 628
7.5 664
7.52 593
7.54 611
7.56 632
7.58 590
7.6 606
7.62 586
7.64 624
7.66 631
7.68 570
7.7 612
7.72 600
7.74 640
7.76 644
7.78 619
7.8 670
7.82 590
7.84 615
7.86 670
7.88 574
7.9 639
7.92 627
7.94 652
7.96 658
7.98 617
8 652
8.02 638
8.04 635
8.06 609
8.08 625
8.1 619
8.12 644
8.14 645
8.16 715
8.18 628
8.2 649
8.22 685
8.24 672
8.26 647
8.28 662
8.3 691
8.32 707
8.34 699
8.36 698
8.38 736
8.4 717
8.42 738
8.44 686
8.46 755
8.48 731
8.5 769
8.52 746
8.54 827
8.56 804
8.58 872
8.6 922
8.62 928
8.64 931
8.66 1059
8.68 1029
8.7 1151
8.72 1176
8.74 1231
8.76 1376
8.78 1418
8.8 1500
8.82 1711
8.84 1835
8.86 1913
8.88 2135
8.9 2362
8.92 2701
8.94 3039
8.96 3524
8.98 4009
9 4534
9.02 4597
9.04 4443
9.06 3816
9.08 3429
9.1 3326
9.12 3297
9.14 2643
9.16 1605
9.18 1004
9.2 936
9.22 852
9.24 819
9.26 779
9.28 820
9.3 755
9.32 737
9.34 746
9.36 765
9.38 780
9.4 802
9.42 769
9.44 794
9.46 819
9.48 771
9.5 790
9.52 795
9.54 786
9.56 827
9.58 847
9.6 855
9.62 866
9.64 908
9.66 920
9.68 965
9.7 1005
9.72 1051
9.74 1098
9.76 1133
9.78 1220
9.8 1276
9.82 1437
9.84 1508
9.86 1500
9.88 1814
9.9 1943
9.92 2192
9.94 2495
9.96 2890
9.98 3395
10 3807
10.02 4347
10.04 4484
10.06 3642
10.08 2405
10.1 1375
10.12 963
10.14 849
10.16 798
10.18 762
10.2 782
10.22 751
10.24 722
10.26 709
10.28 731
10.3 690
10.32 698
10.34 677
10.36 684
10.38 692
10.4 665
10.42 676
10.44 677
10.46 684
10.48 681
10.5 717
10.52 712
10.54 701
10.56 677
10.58 716
10.6 693
10.62 723
10.64 693
10.66 676
10.68 683
10.7 648
10.72 695
10.74 705
10.76 650
10.78 649
10.8 643
10.82 686
10.84 679
10.86 674
10.88 628
10.9 656
10.92 733
10.94 669
10.96 647
10.98 696
11 645
11.02 692
11.04 707
11.06 697
11.08 721
11.1 677
11.12 643
11.14 664
11.16 675
11.18 668
11.2 676
11.22 659
11.24 636
11.26 679
11.28 653
11.3 650
11.32 703
11.34 638
11.36 675
11.38 672
11.4 664
11.42 652
11.44 675
11.46 692
11.48 691
11.5 655
11.52 711
11.54 685
11.56 656
11.58 687
11.6 703
11.62 702
11.64 704
11.66 651
11.68 663
11.7 633
11.72 676
11.74 623
11.76 676
11.78 676
11.8 671
11.82 690
11.84 617
11.86 650
11.88 674
11.9 677
11.92 666
11.94 688
11.96 671
11.98 689
12 698
12.02 634
12.04 684
12.06 696
12.08 708
12.1 701
12.12 688
12.14 668
12.16 724
12.18 729
12.2 711
12.22 690
12.24 694
12.26 762
12.28 712
12.3 703
12.32 725
12.34 692
12.36 741
12.38 724
12.4 762
12.42 716
12.44 744
12.46 781
12.48 795
12.5 823
12.52 855
12.54 816
12.56 846
12.58 919
12.6 947
12.62 966
12.64 1109
12.66 1127
12.68 1237
12.7 1319
12.72 1413
12.74 1343
12.76 1324
12.78 1245
12.8 1199
12.82 1076
12.84 902
12.86 870
12.88 788
12.9 780
12.92 765
12.94 768
12.96 759
12.98 785
13 767
13.02 819
13.04 807
13.06 760
13.08 765
13.1 784
13.12 826
13.14 858
13.16 853
13.18 884
13.2 865
13.22 945
13.24 1014
13.26 1052
13.28 1088
13.3 1120
13.32 1142
13.34 1321
13.36 1464
13.38 1563
13.4 1777
13.42 1971
13.44 2188
13.46 2430
13.48 2591
13.5 2552
13.52 2251
13.54 1744
13.56 1320
13.58 1043
13.6 872
13.62 857
13.64 758
13.66 796
13.68 764
13.7 753
13.72 766
13.74 718
13.76 762
13.78 765
13.8 740
13.82 740
13.84 697
13.86 717
13.88 727
13.9 783
13.92 733
13.94 739
13.96 739
13.98 773
14 783
14.02 775
14.04 708
14.06 700
14.08 693
14.1 729
14.12 731
14.14 758
14.16 751
14.18 745
14.2 724
14.22 763
14.24 710
14.26 760
14.28 701
14.3 717
14.32 777
14.34 742
14.36 743
14.38 766
14.4 767
14.42 741
14.44 696
14.46 769
14.48 781
14.5 724
14.52 790
14.54 788
14.56 760
14.58 784
14.6 765
14.62 805
14.64 777
14.66 747
14.68 772
14.7 762
14.72 808
14.74 731
14.76 781
14.78 816
14.8 767
14.82 779
14.84 769
14.86 777
14.88 788
14.9 785
14.92 819
14.94 798
14.96 804
14.98 783
15 749
15.02 712
15.04 778
15.06 728
15.08 757
15.1 784
15.12 845
15.14 808
15.16 799
15.18 780
15.2 774
15.22 790
15.24 799
15.26 776
15.28 809
15.3 809
15.32 799
15.34 805
15.36 806
15.38 833
15.4 802
15.42 805
15.44 849
15.46 857
15.48 811
15.5 809
15.52 849
15.54 861
15.56 818
15.58 768
15.6 840
15.62 785
15.64 822
15.66 808
15.68 802
15.7 798
15.72 854
15.74 849
15.76 805
15.78 845
15.8 807
15.82 832
15.84 849
15.86 827
15.88 835
15.9 875
15.92 866
15.94 845
15.96 833
15.98 871
16 894
16.02 894
16.04 811
16.06 857
16.08 859
16.1 837
16.12 909
16.14 849
16.16 834
16.18 843
16.2 868
16.22 860
16.24 871
16.26 891
16.28 899
16.3 844
16.32 892
16.34 888
16.36 854
16.38 855
16.4 831
16.42 861
16.44 916
16.46 917
16.48 933
16.5 909
16.52 903
16.54 938
16.56 917
16.58 944
16.6 884
16.62 965
16.64 885
16.66 940
16.68 877
16.7 997
16.72 999
16.74 998
16.76 999
16.78 913
16.8 957
16.82 962
16.84 1043
16.86 993
16.88 1030
16.9 1022
16.92 1021
16.94 1032
16.96 1062
16.98 1088
17 1204
17.02 1321
17.04 1357
17.06 1495
17.08 1562
17.1 1584
17.12 1591
17.14 1469
17.16 1322
17.18 1189
17.2 1077
17.22 1047
17.24 1036
17.26 1038
17.28 1015
17.3 1048
17.32 1017
17.34 983
17.36 1003
17.38 1012
17.4 1011
17.42 971
17.44 1000
17.46 1004
17.48 1002
17.5 1048
17.52 1022
17.54 987
17.56 1043
17.58 1084
17.6 1001
17.62 998
17.64 1104
17.66 1014
17.68 1061
17.7 1089
17.72 1074
17.74 1083
17.76 1093
17.78 1103
17.8 1179
17.82 1186
17.84 1209
17.86 1302
17.88 1235
17.9 1241
17.92 1220
17.94 1255
17.96 1183
17.98 1169
18 1170
18.02 1145
18.04 1195
18.06 1194
18.08 1166
18.1 1225
18.12 1160
18.14 1172
18.16 1160
18.18 1231
18.2 1167
18.22 1129
18.24 1110
18.26 1177
18.28 1204
18.3 1151
18.32 1161
18.34 1260
18.36 1244
18.38 1273
18.4 1283
18.42 1371
18.44 1368
18.46 1339
18.48 1365
18.5 1370
18.52 1342
18.54 1289
18.56 1372
18.58 1249
18.6 1289
18.62 1237
18.64 1209
18.66 1226
18.68 1179
18.7 1207
18.72 1185
18.74 1168
18.76 1208
18.78 1294
18.8 1218
18.82 1228
18.84 1243
18.86 1230
18.88 1244
18.9 1195
18.92 1236
18.94 1233
18.96 1245
18.98 1242
19 1203
19.02 1278
19.04 1277
19.06 1286
19.08 1273
19.1 1267
19.12 1242
19.14 1227
19.16 1259
19.18 1286
19.2 1277
19.22 1269
19.24 1247
19.26 1331
19.28 1310
19.3 1298
19.32 1253
19.34 1314
19.36 1272
19.38 1355
19.4 1295
19.42 1307
19.44 1336
19.46 1329
19.48 1309
19.5 1325
19.52 1288
19.54 1378
19.56 1371
19.58 1273
19.6 1383
19.62 1421
19.64 1329
19.66 1396
19.68 1377
19.7 1443
19.72 1432
19.74 1445
19.76 1495
19.78 1556
19.8 1545
19.82 1591
19.84 1645
19.86 1784
19.88 1916
19.9 2065
19.92 2254
19.94 2384
19.96 2386
19.98 2459
20 2381