File: xrd-UiO-67/pxrddata/9-5.ASC
3 1933
3.02 1666
3.04 1522
3.06 1388
3.08 1338
3.1 1257
3.12 1203
3.14 1192
3.16 1169
3.18 1221
3.2 1152
3.22 1147
3.24 1107
3.26 1112
3.28 1111
3.3 1063
3.32 1022
3.34 1120
3.36 1067
3.38 1070
3.4 1015
3.42 1036
3.44 1006
3.46 1047
3.48 1073
3.5 995
3.52 1015
3.54 985
3.56 972
3.58 981
3.6 955
3.62 952
3.64 957
3.66 968
3.68 954
3.7 931
3.72 928
3.74 924
3.76 841
3.78 955
3.8 900
3.82 878
3.84 885
3.86 866
3.88 872
3.9 791
3.92 826
3.94 820
3.96 858
3.98 812
4 798
4.02 818
4.04 818
4.06 777
4.08 783
4.1 781
4.12 758
4.14 770
4.16 742
4.18 753
4.2 772
4.22 777
4.24 805
4.26 739
4.28 731
4.3 780
4.32 725
4.34 688
4.36 759
4.38 672
4.4 706
4.42 712
4.44 668
4.46 672
4.48 685
4.5 725
4.52 671
4.54 671
4.56 672
4.58 686
4.6 710
4.62 657
4.64 658
4.66 672
4.68 617
4.7 611
4.72 665
4.74 638
4.76 648
4.78 625
4.8 627
4.82 613
4.84 641
4.86 630
4.88 595
4.9 544
4.92 605
4.94 624
4.96 613
4.98 643
5 632
5.02 582
5.04 655
5.06 611
5.08 646
5.1 565
5.12 609
5.14 585
5.16 603
5.18 593
5.2 619
5.22 589
5.24 607
5.26 559
5.28 589
5.3 638
5.32 577
5.34 635
5.36 567
5.38 610
5.4 568
5.42 591
5.44 591
5.46 581
5.48 598
5.5 569
5.52 604
5.54 620
5.56 610
5.58 597
5.6 608
5.62 552
5.64 633
5.66 626
5.68 640
5.7 637
5.72 617
5.74 612
5.76 680
5.78 762
5.8 717
5.82 637
5.84 571
5.86 619
5.88 636
5.9 567
5.92 607
5.94 609
5.96 652
5.98 640
6 661
6.02 627
6.04 631
6.06 588
6.08 590
6.1 568
6.12 576
6.14 587
6.16 579
6.18 634
6.2 573
6.22 568
6.24 594
6.26 609
6.28 584
6.3 594
6.32 589
6.34 609
6.36 587
6.38 577
6.4 530
6.42 575
6.44 603
6.46 598
6.48 563
6.5 561
6.52 563
6.54 571
6.56 594
6.58 605
6.6 541
6.62 589
6.64 534
6.66 543
6.68 592
6.7 592
6.72 610
6.74 583
6.76 578
6.78 579
6.8 651
6.82 598
6.84 564
6.86 607
6.88 578
6.9 608
6.92 574
6.94 646
6.96 608
6.98 574
7 577
7.02 570
7.04 551
7.06 543
7.08 554
7.1 606
7.12 602
7.14 639
7.16 593
7.18 570
7.2 605
7.22 571
7.24 579
7.26 569
7.28 604
7.3 569
7.32 606
7.34 553
7.36 604
7.38 614
7.4 601
7.42 626
7.44 597
7.46 595
7.48 590
7.5 633
7.52 605
7.54 600
7.56 605
7.58 566
7.6 567
7.62 593
7.64 571
7.66 555
7.68 581
7.7 574
7.72 590
7.74 588
7.76 563
7.78 632
7.8 574
7.82 555
7.84 603
7.86 574
7.88 558
7.9 614
7.92 599
7.94 587
7.96 581
7.98 595
8 614
8.02 585
8.04 619
8.06 621
8.08 614
8.1 656
8.12 571
8.14 628
8.16 633
8.18 573
8.2 619
8.22 620
8.24 608
8.26 589
8.28 601
8.3 562
8.32 565
8.34 553
8.36 609
8.38 614
8.4 577
8.42 576
8.44 589
8.46 580
8.48 594
8.5 583
8.52 567
8.54 584
8.56 553
8.58 616
8.6 623
8.62 606
8.64 595
8.66 569
8.68 582
8.7 654
8.72 603
8.74 613
8.76 631
8.78 645
8.8 610
8.82 656
8.84 612
8.86 597
8.88 635
8.9 670
8.92 643
8.94 671
8.96 650
8.98 599
9 635
9.02 671
9.04 680
9.06 651
9.08 604
9.1 647
9.12 662
9.14 700
9.16 735
9.18 620
9.2 624
9.22 677
9.24 616
9.26 600
9.28 586
9.3 630
9.32 595
9.34 590
9.36 608
9.38 631
9.4 616
9.42 623
9.44 673
9.46 645
9.48 595
9.5 571
9.52 599
9.54 629
9.56 603
9.58 571
9.6 601
9.62 519
9.64 582
9.66 568
9.68 602
9.7 604
9.72 574
9.74 609
9.76 560
9.78 566
9.8 573
9.82 588
9.84 571
9.86 568
9.88 599
9.9 566
9.92 571
9.94 554
9.96 623
9.98 577
10 589
10.02 584
10.04 552
10.06 622
10.08 594
10.1 620
10.12 614
10.14 539
10.16 581
10.18 604
10.2 586
10.22 620
10.24 586
10.26 606
10.28 621
10.3 601
10.32 614
10.34 564
10.36 621
10.38 613
10.4 612
10.42 610
10.44 593
10.46 609
10.48 603
10.5 628
10.52 642
10.54 603
10.56 644
10.58 589
10.6 574
10.62 538
10.64 620
10.66 627
10.68 632
10.7 582
10.72 612
10.74 548
10.76 597
10.78 616
10.8 583
10.82 620
10.84 614
10.86 564
10.88 597
10.9 575
10.92 595
10.94 593
10.96 568
10.98 608
11 555
11.02 588
11.04 609
11.06 574
11.08 632
11.1 625
11.12 620
11.14 591
11.16 581
11.18 573
11.2 612
11.22 604
11.24 582
11.26 605
11.28 637
11.3 604
11.32 614
11.34 631
11.36 614
11.38 618
11.4 675
11.42 647
11.44 642
11.46 695
11.48 701
11.5 870
11.52 905
11.54 994
11.56 964
11.58 802
11.6 682
11.62 671
11.64 679
11.66 672
11.68 662
11.7 620
11.72 648
11.74 663
11.76 676
11.78 611
11.8 656
11.82 644
11.84 612
11.86 630
11.88 673
11.9 612
11.92 602
11.94 673
11.96 638
11.98 646
12 657
12.02 653
12.04 628
12.06 585
12.08 623
12.1 606
12.12 638
12.14 668
12.16 644
12.18 617
12.2 634
12.22 649
12.24 641
12.26 682
12.28 617
12.3 616
12.32 643
12.34 630
12.36 670
12.38 668
12.4 629
12.42 668
12.44 664
12.46 667
12.48 674
12.5 665
12.52 684
12.54 649
12.56 661
12.58 653
12.6 693
12.62 696
12.64 669
12.66 674
12.68 639
12.7 639
12.72 677
12.74 671
12.76 745
12.78 680
12.8 642
12.82 726
12.84 647
12.86 676
12.88 728
12.9 687
12.92 704
12.94 671
12.96 732
12.98 687
13 693
13.02 649
13.04 675
13.06 740
13.08 681
13.1 676
13.12 743
13.14 684
13.16 687
13.18 700
13.2 720
13.22 715
13.24 710
13.26 719
13.28 751
13.3 726
13.32 728
13.34 714
13.36 716
13.38 731
13.4 739
13.42 698
13.44 702
13.46 728
13.48 728
13.5 712
13.52 743
13.54 753
13.56 728
13.58 751
13.6 775
13.62 731
13.64 727
13.66 716
13.68 762
13.7 748
13.72 768
13.74 744
13.76 770
13.78 754
13.8 756
13.82 764
13.84 759
13.86 760
13.88 763
13.9 772
13.92 770
13.94 794
13.96 756
13.98 781
14 775
14.02 692
14.04 715
14.06 757
14.08 770
14.1 794
14.12 774
14.14 804
14.16 803
14.18 812
14.2 799
14.22 750
14.24 727
14.26 854
14.28 773
14.3 829
14.32 809
14.34 788
14.36 791
14.38 827
14.4 842
14.42 874
14.44 841
14.46 774
14.48 824
14.5 855
14.52 868
14.54 877
14.56 861
14.58 886
14.6 872
14.62 840
14.64 863
14.66 811
14.68 867
14.7 855
14.72 859
14.74 875
14.76 876
14.78 855
14.8 840
14.82 854
14.84 864
14.86 890
14.88 893
14.9 874
14.92 939
14.94 933
14.96 910
14.98 852
15 866
15.02 914
15.04 958
15.06 923
15.08 963
15.1 930
15.12 972
15.14 985
15.16 955
15.18 960
15.2 988
15.22 933
15.24 898
15.26 898
15.28 940
15.3 947
15.32 1003
15.34 963
15.36 964
15.38 923
15.4 970
15.42 980
15.44 940
15.46 1009
15.48 956
15.5 963
15.52 996
15.54 996
15.56 935
15.58 980
15.6 1070
15.62 951
15.64 1045
15.66 1027
15.68 1116
15.7 1039
15.72 994
15.74 1019
15.76 971
15.78 1005
15.8 1035
15.82 1009
15.84 1084
15.86 1057
15.88 1063
15.9 1088
15.92 1017
15.94 1070
15.96 1090
15.98 1076
16 1094
16.02 1072
16.04 1053
16.06 1088
16.08 1061
16.1 1130
16.12 1120
16.14 1061
16.16 1026
16.18 1109
16.2 1110
16.22 1114
16.24 1091
16.26 1185
16.28 1131
16.3 1170
16.32 1117
16.34 1135
16.36 1144
16.38 1168
16.4 1135
16.42 1130
16.44 1180
16.46 1098
16.48 1196
16.5 1162
16.52 1145
16.54 1214
16.56 1185
16.58 1213
16.6 1186
16.62 1213
16.64 1170
16.66 1141
16.68 1235
16.7 1211
16.72 1254
16.74 1182
16.76 1208
16.78 1244
16.8 1238
16.82 1270
16.84 1231
16.86 1241
16.88 1255
16.9 1232
16.92 1310
16.94 1329
16.96 1343
16.98 1309
17 1274
17.02 1314
17.04 1284
17.06 1272
17.08 1296
17.1 1350
17.12 1299
17.14 1336
17.16 1336
17.18 1262
17.2 1273
17.22 1320
17.24 1334
17.26 1379
17.28 1331
17.3 1384
17.32 1353
17.34 1379
17.36 1317
17.38 1400
17.4 1336
17.42 1483
17.44 1419
17.46 1372
17.48 1353
17.5 1340
17.52 1361
17.54 1397
17.56 1396
17.58 1395
17.6 1476
17.62 1469
17.64 1473
17.66 1443
17.68 1488
17.7 1474
17.72 1437
17.74 1442
17.76 1430
17.78 1436
17.8 1386
17.82 1436
17.84 1454
17.86 1448
17.88 1451
17.9 1498
17.92 1506
17.94 1408
17.96 1526
17.98 1482
18 1509
18.02 1517
18.04 1521
18.06 1527
18.08 1546
18.1 1547
18.12 1515
18.14 1575
18.16 1518
18.18 1515
18.2 1554
18.22 1544
18.24 1605
18.26 1547
18.28 1541
18.3 1540
18.32 1516
18.34 1586
18.36 1585
18.38 1523
18.4 1665
18.42 1584
18.44 1631
18.46 1573
18.48 1585
18.5 1607
18.52 1632
18.54 1664
18.56 1639
18.58 1711
18.6 1623
18.62 1651
18.64 1635
18.66 1640
18.68 1671
18.7 1613
18.72 1754
18.74 1692
18.76 1704
18.78 1705
18.8 1709
18.82 1724
18.84 1695
18.86 1715
18.88 1763
18.9 1699
18.92 1772
18.94 1812
18.96 1750
18.98 1750
19 1796
19.02 1761
19.04 1686
19.06 1797
19.08 1777
19.1 1784
19.12 1725
19.14 1738
19.16 1735
19.18 1743
19.2 1795
19.22 1772
19.24 1815
19.26 1804
19.28 1825
19.3 1849
19.32 1791
19.34 1854
19.36 1781
19.38 1769
19.4 1873
19.42 1786
19.44 1789
19.46 1716
19.48 1861
19.5 1842
19.52 1745
19.54 1807
19.56 1900
19.58 1772
19.6 1787
19.62 1900
19.64 1883
19.66 1847
19.68 1845
19.7 1931
19.72 1942
19.74 1844
19.76 1921
19.78 1903
19.8 1854
19.82 1836
19.84 1934
19.86 1960
19.88 1913
19.9 1896
19.92 1908
19.94 1941
19.96 1926
19.98 1949
20 1858