File: xrd-UiO-67/pxrddata/9-8.ASC
3 2412
3.02 2249
3.04 2028
3.06 1909
3.08 1760
3.1 1724
3.12 1608
3.14 1495
3.16 1593
3.18 1565
3.2 1435
3.22 1431
3.24 1461
3.26 1432
3.28 1338
3.3 1358
3.32 1343
3.34 1422
3.36 1291
3.38 1316
3.4 1255
3.42 1251
3.44 1240
3.46 1243
3.48 1214
3.5 1245
3.52 1192
3.54 1200
3.56 1190
3.58 1153
3.6 1179
3.62 1129
3.64 1142
3.66 1089
3.68 1129
3.7 1138
3.72 1082
3.74 1053
3.76 1100
3.78 1001
3.8 1039
3.82 997
3.84 1033
3.86 1035
3.88 974
3.9 973
3.92 981
3.94 992
3.96 964
3.98 1037
4 882
4.02 967
4.04 916
4.06 922
4.08 936
4.1 968
4.12 915
4.14 918
4.16 911
4.18 902
4.2 899
4.22 871
4.24 876
4.26 868
4.28 805
4.3 844
4.32 817
4.34 832
4.36 816
4.38 814
4.4 817
4.42 827
4.44 858
4.46 821
4.48 809
4.5 770
4.52 798
4.54 780
4.56 840
4.58 827
4.6 785
4.62 731
4.64 779
4.66 735
4.68 787
4.7 745
4.72 767
4.74 800
4.76 780
4.78 749
4.8 747
4.82 799
4.84 762
4.86 757
4.88 772
4.9 721
4.92 766
4.94 739
4.96 765
4.98 692
5 742
5.02 709
5.04 741
5.06 748
5.08 742
5.1 734
5.12 698
5.14 752
5.16 706
5.18 714
5.2 691
5.22 737
5.24 685
5.26 746
5.28 758
5.3 712
5.32 768
5.34 685
5.36 712
5.38 706
5.4 729
5.42 729
5.44 742
5.46 726
5.48 710
5.5 718
5.52 751
5.54 697
5.56 709
5.58 755
5.6 716
5.62 716
5.64 760
5.66 744
5.68 763
5.7 744
5.72 721
5.74 748
5.76 766
5.78 753
5.8 734
5.82 713
5.84 737
5.86 713
5.88 738
5.9 698
5.92 713
5.94 693
5.96 690
5.98 696
6 687
6.02 690
6.04 732
6.06 712
6.08 767
6.1 737
6.12 738
6.14 712
6.16 731
6.18 709
6.2 693
6.22 703
6.24 754
6.26 726
6.28 761
6.3 710
6.32 758
6.34 724
6.36 742
6.38 719
6.4 727
6.42 689
6.44 708
6.46 756
6.48 775
6.5 720
6.52 745
6.54 775
6.56 759
6.58 740
6.6 729
6.62 687
6.64 700
6.66 744
6.68 697
6.7 768
6.72 713
6.74 742
6.76 740
6.78 744
6.8 716
6.82 755
6.84 705
6.86 754
6.88 767
6.9 713
6.92 738
6.94 764
6.96 740
6.98 751
7 683
7.02 745
7.04 764
7.06 726
7.08 742
7.1 711
7.12 773
7.14 742
7.16 782
7.18 748
7.2 773
7.22 762
7.24 765
7.26 695
7.28 792
7.3 749
7.32 776
7.34 735
7.36 737
7.38 728
7.4 696
7.42 722
7.44 752
7.46 706
7.48 761
7.5 738
7.52 754
7.54 747
7.56 777
7.58 741
7.6 771
7.62 744
7.64 742
7.66 766
7.68 784
7.7 781
7.72 796
7.74 780
7.76 758
7.78 781
7.8 744
7.82 757
7.84 772
7.86 759
7.88 795
7.9 786
7.92 782
7.94 817
7.96 838
7.98 829
8 888
8.02 844
8.04 835
8.06 821
8.08 806
8.1 799
8.12 873
8.14 887
8.16 870
8.18 835
8.2 818
8.22 916
8.24 920
8.26 955
8.28 881
8.3 942
8.32 876
8.34 947
8.36 1042
8.38 1014
8.4 960
8.42 1068
8.44 1053
8.46 1080
8.48 1164
8.5 1201
8.52 1240
8.54 1321
8.56 1377
8.58 1472
8.6 1511
8.62 1612
8.64 1676
8.66 1832
8.68 1858
8.7 2090
8.72 2248
8.74 2465
8.76 2687
8.78 2919
8.8 3218
8.82 3773
8.84 4046
8.86 4735
8.88 4974
8.9 4956
8.92 4824
8.94 4577
8.96 4515
8.98 4680
9 4849
9.02 4641
9.04 3624
9.06 2645
9.08 1917
9.1 1624
9.12 1504
9.14 1405
9.16 1350
9.18 1321
9.2 1299
9.22 1270
9.24 1268
9.26 1269
9.28 1182
9.3 1239
9.32 1262
9.34 1223
9.36 1215
9.38 1190
9.4 1207
9.42 1203
9.44 1227
9.46 1268
9.48 1222
9.5 1233
9.52 1248
9.54 1239
9.56 1376
9.58 1392
9.6 1371
9.62 1471
9.64 1553
9.66 1543
9.68 1722
9.7 1776
9.72 1981
9.74 2076
9.76 2155
9.78 2356
9.8 2635
9.82 2859
9.84 3198
9.86 3611
9.88 4224
9.9 4707
9.92 5268
9.94 5147
9.96 4421
9.98 3377
10 2639
10.02 2107
10.04 1714
10.06 1592
10.08 1416
10.1 1317
10.12 1199
10.14 1199
10.16 1127
10.18 1113
10.2 1048
10.22 1025
10.24 1064
10.26 996
10.28 954
10.3 969
10.32 967
10.34 981
10.36 915
10.38 893
10.4 941
10.42 898
10.44 907
10.46 892
10.48 909
10.5 913
10.52 888
10.54 910
10.56 870
10.58 849
10.6 904
10.62 843
10.64 920
10.66 842
10.68 917
10.7 912
10.72 880
10.74 934
10.76 946
10.78 928
10.8 908
10.82 964
10.84 908
10.86 881
10.88 951
10.9 879
10.92 853
10.94 846
10.96 902
10.98 872
11 880
11.02 874
11.04 863
11.06 872
11.08 839
11.1 866
11.12 868
11.14 838
11.16 846
11.18 818
11.2 850
11.22 833
11.24 866
11.26 852
11.28 820
11.3 853
11.32 814
11.34 865
11.36 904
11.38 851
11.4 852
11.42 843
11.44 891
11.46 816
11.48 860
11.5 818
11.52 854
11.54 848
11.56 882
11.58 855
11.6 793
11.62 809
11.64 874
11.66 795
11.68 818
11.7 881
11.72 854
11.74 800
11.76 811
11.78 855
11.8 896
11.82 853
11.84 799
11.86 858
11.88 842
11.9 836
11.92 825
11.94 849
11.96 856
11.98 838
12 819
12.02 899
12.04 848
12.06 907
12.08 910
12.1 923
12.12 868
12.14 897
12.16 912
12.18 890
12.2 882
12.22 902
12.24 911
12.26 914
12.28 908
12.3 934
12.32 970
12.34 1003
12.36 1006
12.38 973
12.4 1026
12.42 1116
12.44 1128
12.46 1142
12.48 1179
12.5 1271
12.52 1312
12.54 1374
12.56 1446
12.58 1443
12.6 1554
12.62 1687
12.64 1661
12.66 1622
12.68 1553
12.7 1450
12.72 1339
12.74 1282
12.76 1176
12.78 1152
12.8 1124
12.82 1091
12.84 1063
12.86 975
12.88 991
12.9 1055
12.92 1055
12.94 1026
12.96 1070
12.98 1064
13 1049
13.02 1053
13.04 1026
13.06 1085
13.08 1072
13.1 1142
13.12 1159
13.14 1267
13.16 1218
13.18 1253
13.2 1392
13.22 1395
13.24 1543
13.26 1543
13.28 1825
13.3 1897
13.32 2019
13.34 2174
13.36 2354
13.38 2405
13.4 2310
13.42 2199
13.44 1898
13.46 1517
13.48 1328
13.5 1187
13.52 1105
13.54 1095
13.56 995
13.58 1029
13.6 1036
13.62 996
13.64 942
13.66 997
13.68 987
13.7 962
13.72 963
13.74 942
13.76 970
13.78 1031
13.8 1007
13.82 984
13.84 946
13.86 978
13.88 965
13.9 952
13.92 946
13.94 938
13.96 986
13.98 975
14 947
14.02 942
14.04 976
14.06 972
14.08 964
14.1 1001
14.12 959
14.14 1029
14.16 955
14.18 983
14.2 957
14.22 1001
14.24 934
14.26 964
14.28 965
14.3 1017
14.32 954
14.34 998
14.36 989
14.38 943
14.4 912
14.42 961
14.44 968
14.46 976
14.48 1044
14.5 986
14.52 1027
14.54 1003
14.56 1019
14.58 1005
14.6 973
14.62 987
14.64 992
14.66 1027
14.68 1018
14.7 1013
14.72 977
14.74 1020
14.76 983
14.78 1026
14.8 1007
14.82 984
14.84 1029
14.86 980
14.88 1044
14.9 997
14.92 986
14.94 980
14.96 1062
14.98 971
15 1033
15.02 1002
15.04 1036
15.06 1005
15.08 1027
15.1 1052
15.12 988
15.14 1076
15.16 1057
15.18 1033
15.2 1038
15.22 1042
15.24 1087
15.26 1072
15.28 1080
15.3 1066
15.32 1014
15.34 1002
15.36 1036
15.38 1037
15.4 1074
15.42 1017
15.44 1087
15.46 1043
15.48 1047
15.5 996
15.52 1074
15.54 1095
15.56 1078
15.58 1042
15.6 1126
15.62 1077
15.64 1050
15.66 1034
15.68 1064
15.7 1056
15.72 1071
15.74 1097
15.76 1082
15.78 1169
15.8 1061
15.82 1119
15.84 1117
15.86 1105
15.88 1077
15.9 1092
15.92 1108
15.94 1097
15.96 1106
15.98 1127
16 1108
16.02 1130
16.04 1106
16.06 1127
16.08 1133
16.1 1164
16.12 1155
16.14 1105
16.16 1137
16.18 1049
16.2 1141
16.22 1097
16.24 1139
16.26 1122
16.28 1130
16.3 1140
16.32 1100
16.34 1077
16.36 1099
16.38 1144
16.4 1200
16.42 1167
16.44 1155
16.46 1169
16.48 1143
16.5 1154
16.52 1184
16.54 1153
16.56 1167
16.58 1196
16.6 1195
16.62 1210
16.64 1106
16.66 1178
16.68 1194
16.7 1264
16.72 1270
16.74 1372
16.76 1305
16.78 1388
16.8 1418
16.82 1439
16.84 1378
16.86 1465
16.88 1596
16.9 1643
16.92 1730
16.94 1836
16.96 1974
16.98 2051
17 2165
17.02 2253
17.04 2201
17.06 1939
17.08 1643
17.1 1469
17.12 1369
17.14 1224
17.16 1264
17.18 1247
17.2 1269
17.22 1284
17.24 1204
17.26 1261
17.28 1281
17.3 1208
17.32 1168
17.34 1247
17.36 1329
17.38 1238
17.4 1249
17.42 1211
17.44 1226
17.46 1271
17.48 1300
17.5 1258
17.52 1261
17.54 1346
17.56 1315
17.58 1304
17.6 1298
17.62 1312
17.64 1323
17.66 1399
17.68 1352
17.7 1347
17.72 1374
17.74 1357
17.76 1457
17.78 1372
17.8 1391
17.82 1384
17.84 1373
17.86 1416
17.88 1398
17.9 1415
17.92 1382
17.94 1390
17.96 1367
17.98 1385
18 1414
18.02 1340
18.04 1354
18.06 1361
18.08 1357
18.1 1365
18.12 1405
18.14 1353
18.16 1375
18.18 1466
18.2 1376
18.22 1400
18.24 1422
18.26 1409
18.28 1389
18.3 1495
18.32 1448
18.34 1540
18.36 1450
18.38 1469
18.4 1431
18.42 1408
18.44 1481
18.46 1494
18.48 1394
18.5 1434
18.52 1424
18.54 1414
18.56 1422
18.58 1419
18.6 1394
18.62 1509
18.64 1445
18.66 1385
18.68 1437
18.7 1418
18.72 1404
18.74 1402
18.76 1377
18.78 1452
18.8 1468
18.82 1475
18.84 1497
18.86 1467
18.88 1480
18.9 1433
18.92 1360
18.94 1427
18.96 1391
18.98 1417
19 1452
19.02 1490
19.04 1438
19.06 1481
19.08 1470
19.1 1420
19.12 1445
19.14 1437
19.16 1483
19.18 1432
19.2 1526
19.22 1493
19.24 1542
19.26 1461
19.28 1544
19.3 1527
19.32 1517
19.34 1419
19.36 1608
19.38 1494
19.4 1512
19.42 1566
19.44 1490
19.46 1555
19.48 1470
19.5 1524
19.52 1600
19.54 1526
19.56 1576
19.58 1605
19.6 1521
19.62 1625
19.64 1643
19.66 1660
19.68 1692
19.7 1651
19.72 1751
19.74 1867
19.76 1898
19.78 1897
19.8 2037
19.82 2067
19.84 2243
19.86 2175
19.88 2261
19.9 2132
19.92 2097
19.94 2122
19.96 2025
19.98 2028
20 2046