File: xrd-UiO-67/pxrddata/9-9.ASC
3 2334
3.02 2096
3.04 1929
3.06 1878
3.08 1757
3.1 1702
3.12 1665
3.14 1616
3.16 1587
3.18 1547
3.2 1514
3.22 1477
3.24 1492
3.26 1479
3.28 1468
3.3 1364
3.32 1402
3.34 1367
3.36 1374
3.38 1379
3.4 1384
3.42 1353
3.44 1313
3.46 1300
3.48 1301
3.5 1312
3.52 1283
3.54 1203
3.56 1197
3.58 1242
3.6 1167
3.62 1162
3.64 1186
3.66 1141
3.68 1151
3.7 1152
3.72 1114
3.74 1074
3.76 1159
3.78 1054
3.8 1081
3.82 1045
3.84 1085
3.86 1055
3.88 1032
3.9 1053
3.92 1016
3.94 994
3.96 965
3.98 993
4 1000
4.02 1016
4.04 958
4.06 963
4.08 908
4.1 876
4.12 960
4.14 963
4.16 932
4.18 957
4.2 930
4.22 902
4.24 898
4.26 893
4.28 856
4.3 847
4.32 853
4.34 819
4.36 815
4.38 854
4.4 857
4.42 796
4.44 787
4.46 820
4.48 859
4.5 852
4.52 813
4.54 797
4.56 782
4.58 785
4.6 760
4.62 814
4.64 815
4.66 789
4.68 780
4.7 765
4.72 772
4.74 771
4.76 742
4.78 787
4.8 741
4.82 748
4.84 793
4.86 765
4.88 746
4.9 775
4.92 759
4.94 721
4.96 758
4.98 721
5 702
5.02 696
5.04 709
5.06 742
5.08 731
5.1 740
5.12 736
5.14 744
5.16 724
5.18 700
5.2 745
5.22 667
5.24 719
5.26 743
5.28 693
5.3 714
5.32 707
5.34 757
5.36 715
5.38 725
5.4 697
5.42 692
5.44 695
5.46 699
5.48 710
5.5 730
5.52 730
5.54 746
5.56 717
5.58 680
5.6 731
5.62 671
5.64 696
5.66 724
5.68 730
5.7 694
5.72 674
5.74 738
5.76 654
5.78 658
5.8 670
5.82 707
5.84 718
5.86 683
5.88 675
5.9 727
5.92 674
5.94 691
5.96 705
5.98 690
6 674
6.02 689
6.04 663
6.06 683
6.08 719
6.1 675
6.12 649
6.14 691
6.16 714
6.18 675
6.2 680
6.22 668
6.24 689
6.26 722
6.28 720
6.3 722
6.32 682
6.34 656
6.36 692
6.38 691
6.4 677
6.42 677
6.44 687
6.46 631
6.48 663
6.5 688
6.52 685
6.54 675
6.56 731
6.58 666
6.6 659
6.62 710
6.64 677
6.66 662
6.68 686
6.7 679
6.72 671
6.74 711
6.76 731
6.78 694
6.8 619
6.82 675
6.84 698
6.86 703
6.88 680
6.9 694
6.92 715
6.94 674
6.96 676
6.98 725
7 719
7.02 696
7.04 677
7.06 687
7.08 721
7.1 680
7.12 660
7.14 667
7.16 714
7.18 693
7.2 629
7.22 701
7.24 702
7.26 757
7.28 699
7.3 710
7.32 686
7.34 711
7.36 718
7.38 669
7.4 719
7.42 664
7.44 683
7.46 652
7.48 683
7.5 671
7.52 693
7.54 674
7.56 725
7.58 717
7.6 638
7.62 686
7.64 684
7.66 689
7.68 676
7.7 638
7.72 639
7.74 739
7.76 685
7.78 713
7.8 714
7.82 687
7.84 696
7.86 686
7.88 660
7.9 666
7.92 661
7.94 698
7.96 666
7.98 676
8 712
8.02 701
8.04 722
8.06 663
8.08 683
8.1 696
8.12 726
8.14 708
8.16 676
8.18 715
8.2 712
8.22 705
8.24 701
8.26 658
8.28 699
8.3 721
8.32 671
8.34 710
8.36 702
8.38 702
8.4 662
8.42 724
8.44 721
8.46 734
8.48 734
8.5 756
8.52 765
8.54 725
8.56 803
8.58 749
8.6 759
8.62 759
8.64 819
8.66 849
8.68 807
8.7 869
8.72 847
8.74 940
8.76 915
8.78 907
8.8 982
8.82 1082
8.84 1060
8.86 1117
8.88 1198
8.9 1263
8.92 1286
8.94 1332
8.96 1287
8.98 1436
9 1447
9.02 1289
9.04 1343
9.06 1348
9.08 1267
9.1 1263
9.12 1155
9.14 1119
9.16 1088
9.18 1070
9.2 1058
9.22 964
9.24 953
9.26 898
9.28 939
9.3 879
9.32 893
9.34 864
9.36 844
9.38 824
9.4 817
9.42 818
9.44 784
9.46 827
9.48 798
9.5 810
9.52 792
9.54 850
9.56 795
9.58 835
9.6 778
9.62 819
9.64 853
9.66 802
9.68 810
9.7 888
9.72 884
9.74 915
9.76 884
9.78 959
9.8 1014
9.82 990
9.84 1049
9.86 1126
9.88 1099
9.9 1160
9.92 1231
9.94 1171
9.96 1209
9.98 1213
10 1262
10.02 1205
10.04 1199
10.06 1118
10.08 1062
10.1 1085
10.12 1022
10.14 970
10.16 972
10.18 871
10.2 933
10.22 859
10.24 849
10.26 866
10.28 779
10.3 839
10.32 770
10.34 784
10.36 725
10.38 770
10.4 733
10.42 713
10.44 726
10.46 690
10.48 699
10.5 682
10.52 721
10.54 731
10.56 677
10.58 725
10.6 683
10.62 696
10.64 701
10.66 698
10.68 697
10.7 618
10.72 688
10.74 675
10.76 658
10.78 659
10.8 663
10.82 660
10.84 683
10.86 676
10.88 609
10.9 686
10.92 661
10.94 681
10.96 655
10.98 630
11 604
11.02 641
11.04 628
11.06 683
11.08 640
11.1 649
11.12 656
11.14 624
11.16 681
11.18 635
11.2 605
11.22 623
11.24 653
11.26 631
11.28 647
11.3 630
11.32 637
11.34 686
11.36 639
11.38 654
11.4 654
11.42 588
11.44 661
11.46 675
11.48 632
11.5 669
11.52 627
11.54 643
11.56 619
11.58 639
11.6 610
11.62 661
11.64 592
11.66 644
11.68 607
11.7 623
11.72 627
11.74 674
11.76 623
11.78 600
11.8 667
11.82 623
11.84 627
11.86 597
11.88 658
11.9 630
11.92 668
11.94 663
11.96 600
11.98 663
12 618
12.02 686
12.04 676
12.06 636
12.08 675
12.1 684
12.12 631
12.14 617
12.16 622
12.18 625
12.2 684
12.22 634
12.24 668
12.26 677
12.28 655
12.3 679
12.32 641
12.34 620
12.36 645
12.38 700
12.4 640
12.42 654
12.44 714
12.46 680
12.48 672
12.5 709
12.52 746
12.54 716
12.56 706
12.58 691
12.6 759
12.62 759
12.64 721
12.66 738
12.68 708
12.7 757
12.72 708
12.74 776
12.76 726
12.78 711
12.8 708
12.82 758
12.84 735
12.86 712
12.88 662
12.9 732
12.92 700
12.94 691
12.96 704
12.98 670
13 639
13.02 666
13.04 679
13.06 685
13.08 651
13.1 671
13.12 671
13.14 669
13.16 666
13.18 672
13.2 708
13.22 687
13.24 680
13.26 706
13.28 665
13.3 671
13.32 667
13.34 645
13.36 708
13.38 711
13.4 655
13.42 631
13.44 678
13.46 719
13.48 668
13.5 670
13.52 649
13.54 643
13.56 660
13.58 644
13.6 663
13.62 623
13.64 688
13.66 685
13.68 634
13.7 658
13.72 671
13.74 635
13.76 656
13.78 658
13.8 686
13.82 671
13.84 672
13.86 660
13.88 629
13.9 663
13.92 681
13.94 629
13.96 627
13.98 649
14 626
14.02 681
14.04 651
14.06 672
14.08 688
14.1 658
14.12 720
14.14 665
14.16 636
14.18 705
14.2 693
14.22 635
14.24 637
14.26 676
14.28 660
14.3 650
14.32 650
14.34 691
14.36 633
14.38 691
14.4 667
14.42 687
14.44 687
14.46 682
14.48 691
14.5 707
14.52 644
14.54 709
14.56 707
14.58 742
14.6 718
14.62 709
14.64 721
14.66 720
14.68 697
14.7 683
14.72 689
14.74 688
14.76 745
14.78 702
14.8 643
14.82 680
14.84 710
14.86 722
14.88 673
14.9 720
14.92 716
14.94 695
14.96 738
14.98 689
15 716
15.02 696
15.04 690
15.06 731
15.08 712
15.1 685
15.12 683
15.14 729
15.16 717
15.18 729
15.2 736
15.22 716
15.24 693
15.26 694
15.28 740
15.3 720
15.32 738
15.34 730
15.36 688
15.38 706
15.4 722
15.42 699
15.44 752
15.46 706
15.48 766
15.5 715
15.52 726
15.54 752
15.56 762
15.58 723
15.6 727
15.62 796
15.64 728
15.66 773
15.68 789
15.7 716
15.72 713
15.74 757
15.76 788
15.78 770
15.8 761
15.82 721
15.84 709
15.86 781
15.88 769
15.9 793
15.92 728
15.94 789
15.96 761
15.98 799
16 706
16.02 756
16.04 756
16.06 784
16.08 771
16.1 787
16.12 796
16.14 756
16.16 765
16.18 763
16.2 762
16.22 773
16.24 791
16.26 766
16.28 802
16.3 832
16.32 820
16.34 762
16.36 794
16.38 763
16.4 852
16.42 824
16.44 780
16.46 788
16.48 832
16.5 774
16.52 791
16.54 775
16.56 763
16.58 752
16.6 815
16.62 788
16.64 829
16.66 793
16.68 846
16.7 851
16.72 872
16.74 874
16.76 888
16.78 842
16.8 882
16.82 902
16.84 855
16.86 915
16.88 945
16.9 985
16.92 1044
16.94 1062
16.96 1142
16.98 1251
17 1375
17.02 1330
17.04 1222
17.06 1144
17.08 1090
17.1 1158
17.12 1039
17.14 1046
17.16 1049
17.18 1040
17.2 1015
17.22 996
17.24 993
17.26 929
17.28 936
17.3 932
17.32 921
17.34 955
17.36 920
17.38 901
17.4 929
17.42 893
17.44 944
17.46 876
17.48 916
17.5 978
17.52 920
17.54 899
17.56 934
17.58 933
17.6 956
17.62 915
17.64 1018
17.66 944
17.68 950
17.7 938
17.72 916
17.74 947
17.76 974
17.78 973
17.8 957
17.82 970
17.84 958
17.86 927
17.88 962
17.9 975
17.92 992
17.94 976
17.96 1026
17.98 1036
18 1017
18.02 1043
18.04 1003
18.06 1003
18.08 995
18.1 962
18.12 1020
18.14 965
18.16 1030
18.18 1013
18.2 954
18.22 984
18.24 1037
18.26 1040
18.28 1094
18.3 1021
18.32 1074
18.34 1071
18.36 1033
18.38 1103
18.4 1063
18.42 1011
18.44 1056
18.46 1105
18.48 1114
18.5 1088
18.52 1051
18.54 1054
18.56 1018
18.58 1034
18.6 1008
18.62 1020
18.64 1063
18.66 1096
18.68 1023
18.7 1109
18.72 1094
18.74 1117
18.76 1100
18.78 1107
18.8 1091
18.82 1121
18.84 1090
18.86 1113
18.88 1099
18.9 1060
18.92 1162
18.94 1119
18.96 1074
18.98 1178
19 1102
19.02 1104
19.04 1149
19.06 1103
19.08 1189
19.1 1129
19.12 1114
19.14 1129
19.16 1134
19.18 1083
19.2 1109
19.22 1118
19.24 1136
19.26 1179
19.28 1158
19.3 1159
19.32 1192
19.34 1178
19.36 1130
19.38 1205
19.4 1166
19.42 1239
19.44 1214
19.46 1182
19.48 1169
19.5 1273
19.52 1241
19.54 1225
19.56 1225
19.58 1228
19.6 1178
19.62 1158
19.64 1222
19.66 1249
19.68 1206
19.7 1250
19.72 1229
19.74 1310
19.76 1264
19.78 1275
19.8 1294
19.82 1262
19.84 1310
19.86 1327
19.88 1354
19.9 1343
19.92 1295
19.94 1275
19.96 1314
19.98 1310
20 1323